Comprimento	Intensity
178.13	1329.13
178.35	1329.13
178.57	1329.13
178.78	1234.93
179.00	1212.40
179.22	1425.39
179.44	1480.68
179.66	1443.82
179.87	1497.07
180.09	1507.30
180.31	1497.07
180.53	1429.48
180.75	1480.68
180.96	1357.80
181.18	1515.50
181.40	1341.42
181.62	1359.85
181.84	1406.95
182.05	1447.91
182.27	1357.80
182.49	1499.11
182.71	1425.39
182.92	1540.07
183.14	1402.86
183.36	1361.90
183.58	1349.61
183.80	1521.64
184.01	1390.57
184.23	1523.69
184.45	1499.11
184.67	1452.01
184.89	1402.86
185.10	1538.02
185.32	1439.72
185.54	1523.69
185.76	1490.92
185.97	1458.15
186.19	1505.26
186.41	1468.39
186.63	1505.26
186.84	1392.62
187.06	1540.07
187.28	1587.18
187.50	1357.80
187.72	1497.07
187.93	1529.83
188.15	1374.19
188.37	1447.91
188.59	1402.86
188.80	1456.11
189.02	1398.76
189.24	1456.11
189.46	1499.11
189.67	1546.22
189.89	1576.94
190.11	1464.30
190.33	1507.30
190.54	1548.26
190.76	1523.69
190.98	1415.15
191.20	1411.05
191.41	1406.95
191.63	1480.68
191.85	1349.61
192.07	1390.57
192.28	1529.83
192.50	1390.57
192.72	1427.43
192.94	1497.07
193.15	1466.35
193.37	1562.60
193.59	1578.98
193.81	1513.45
194.02	1474.54
194.24	1419.24
194.46	1476.59
194.67	1449.96
194.89	1374.19
195.11	1499.11
195.33	1521.64
195.54	1505.26
195.76	1497.07
195.98	1443.82
196.20	1419.24
196.41	1449.96
196.63	1472.49
196.85	1472.49
197.06	1441.77
197.28	1492.97
197.50	1398.76
197.72	1376.24
197.93	1390.57
198.15	1464.30
198.37	1435.63
198.58	1517.54
198.80	1452.01
199.02	1605.61
199.24	1484.78
199.45	1497.07
199.67	1370.09
199.89	1456.11
200.10	1472.49
200.32	1439.72
200.54	1427.43
200.76	1433.58
200.97	1433.58
201.19	1341.42
201.41	1447.91
201.62	1425.39
201.84	1435.63
202.06	1505.26
202.28	1513.45
202.49	1523.69
202.71	1538.02
202.93	1452.01
203.14	1480.68
203.36	1433.58
203.58	1376.24
203.79	1376.24
204.01	1515.50
204.23	1460.20
204.44	1538.02
204.66	1456.11
204.88	1556.46
205.10	1409.00
205.31	1466.35
205.53	1482.73
205.75	1411.05
205.96	1480.68
206.18	1458.15
206.40	1406.95
206.61	1411.05
206.83	1382.38
207.05	1398.76
207.26	1476.59
207.48	1474.54
207.70	1507.30
207.91	1466.35
208.13	1482.73
208.35	1433.58
208.56	1431.53
208.78	1509.35
209.00	1497.07
209.21	1488.87
209.43	1447.91
209.65	1431.53
209.86	1431.53
210.08	1488.87
210.30	1564.65
210.51	1538.02
210.73	1439.72
210.95	1464.30
211.16	1431.53
211.38	1366.00
211.60	1415.15
211.81	1390.57
212.03	1513.45
212.25	1523.69
212.46	1466.35
212.68	1497.07
212.90	1464.30
213.11	1390.57
213.33	1554.41
213.55	1499.11
213.76	1517.54
213.98	1441.77
214.20	1447.91
214.41	1449.96
214.63	1488.87
214.84	1480.68
215.06	1490.92
215.28	1482.73
215.49	1456.11
215.71	1513.45
215.93	1517.54
216.14	1417.19
216.36	1562.60
216.58	1423.34
216.79	1366.00
217.01	1423.34
217.22	1447.91
217.44	1562.60
217.66	1488.87
217.87	1482.73
218.09	1406.95
218.31	1427.43
218.52	1472.49
218.74	1480.68
218.95	1474.54
219.17	1417.19
219.39	1497.07
219.60	1505.26
219.82	1464.30
220.04	1488.87
220.25	1476.59
220.47	1447.91
220.68	1548.26
220.90	1423.34
221.12	1480.68
221.33	1460.20
221.55	1464.30
221.77	1466.35
221.98	1488.87
222.20	1513.45
222.41	1509.35
222.63	1480.68
222.85	1505.26
223.06	1433.58
223.28	1507.30
223.49	1441.77
223.71	1456.11
223.93	1466.35
224.14	1533.93
224.36	1574.89
224.57	1497.07
224.79	1402.86
225.01	1415.15
225.22	1474.54
225.44	1400.81
225.65	1439.72
225.87	1490.92
226.09	1425.39
226.30	1570.79
226.52	1474.54
226.73	1433.58
226.95	1535.98
227.17	1464.30
227.38	1454.06
227.60	1521.64
227.81	1400.81
228.03	1351.66
228.24	1628.14
228.46	1490.92
228.68	1447.91
228.89	1490.92
229.11	1447.91
229.32	1564.65
229.54	1423.34
229.75	1525.74
229.97	1419.24
230.19	1480.68
230.40	1443.82
230.62	1361.90
230.83	1423.34
231.05	1398.76
231.26	1382.38
231.48	1398.76
231.70	1556.46
231.91	1419.24
232.13	1361.90
232.34	1497.07
232.56	1472.49
232.77	1499.11
232.99	1499.11
233.21	1718.25
233.42	1458.15
233.64	1480.68
233.85	1431.53
234.07	1406.95
234.28	1484.78
234.50	1490.92
234.71	1505.26
234.93	1472.49
235.15	1349.61
235.36	1429.48
235.58	1458.15
235.79	1456.11
236.01	1390.57
236.22	1521.64
236.44	1515.50
236.65	1458.15
236.87	1497.07
237.08	1406.95
237.30	1439.72
237.52	1497.07
237.73	1398.76
237.95	1417.19
238.16	1366.00
238.38	1406.95
238.59	1415.15
238.81	1611.75
239.02	1480.68
239.24	1443.82
239.45	1466.35
239.67	1501.16
239.88	1464.30
240.10	1521.64
240.31	1546.22
240.53	1398.76
240.74	1433.58
240.96	1505.26
241.18	1464.30
241.39	1402.86
241.61	1374.19
241.82	1423.34
242.04	1499.11
242.25	1431.53
242.47	1466.35
242.68	1447.91
242.90	1474.54
243.11	1423.34
243.33	1464.30
243.54	1636.33
243.76	1425.39
243.97	1529.83
244.19	1464.30
244.40	1452.01
244.62	1447.91
244.83	1398.76
245.05	1386.47
245.26	1433.58
245.48	1439.72
245.69	1488.87
245.91	1474.54
246.12	1433.58
246.34	1443.82
246.55	1480.68
246.77	1431.53
246.98	1525.74
247.20	1447.91
247.41	1394.67
247.63	1423.34
247.84	1531.88
248.06	1546.22
248.27	1456.11
248.49	1507.30
248.70	1472.49
248.92	1423.34
249.13	1406.95
249.35	1447.91
249.56	1439.72
249.78	1435.63
249.99	1480.68
250.21	1431.53
250.42	1431.53
250.64	1464.30
250.85	1501.16
251.06	1572.84
251.28	1382.38
251.49	1472.49
251.71	1351.66
251.92	1484.78
252.14	1452.01
252.35	1374.19
252.57	1486.83
252.78	1507.30
253.00	1443.82
253.21	1359.85
253.43	1411.05
253.64	1456.11
253.86	1497.07
254.07	1378.28
254.28	1402.86
254.50	1513.45
254.71	1497.07
254.93	1390.57
255.14	1400.81
255.36	1482.73
255.57	1513.45
255.79	1433.58
256.00	1447.91
256.22	1535.98
256.43	1540.07
256.64	1581.03
256.86	1529.83
257.07	1392.62
257.29	1431.53
257.50	1335.28
257.72	1456.11
257.93	1316.84
258.15	1499.11
258.36	1320.94
258.57	1513.45
258.79	1464.30
259.00	1521.64
259.22	1472.49
259.43	1406.95
259.65	1464.30
259.86	1415.15
260.08	1341.42
260.29	1679.33
260.50	1431.53
260.72	1800.16
260.93	1386.47
261.15	1419.24
261.36	1458.15
261.58	1390.57
261.79	1449.96
262.00	1546.22
262.22	1591.27
262.43	1497.07
262.65	1415.15
262.86	1505.26
263.07	1456.11
263.29	1525.74
263.50	1480.68
263.72	1443.82
263.93	1482.73
264.15	1447.91
264.36	1447.91
264.57	1447.91
264.79	1546.22
265.00	1470.44
265.22	1447.91
265.43	1468.39
265.64	1435.63
265.86	1415.15
266.07	1480.68
266.29	1439.72
266.50	1482.73
266.71	1570.79
266.93	1456.11
267.14	1490.92
267.36	1466.35
267.57	1474.54
267.78	1456.11
268.00	1554.41
268.21	1509.35
268.43	1529.83
268.64	1406.95
268.85	1345.52
269.07	1460.20
269.28	1452.01
269.50	1423.34
269.71	1456.11
269.92	1480.68
270.14	1484.78
270.35	1415.15
270.56	1497.07
270.78	1415.15
270.99	1495.02
271.21	1431.53
271.42	1490.92
271.63	1456.11
271.85	1390.57
272.06	1452.01
272.27	1449.96
272.49	1456.11
272.70	1497.07
272.92	1521.64
273.13	1447.91
273.34	1505.26
273.56	1427.43
273.77	1521.64
273.98	1488.87
274.20	1466.35
274.41	1474.54
274.63	1417.19
274.84	1464.30
275.05	1452.01
275.27	1439.72
275.48	1468.39
275.69	1472.49
275.91	1505.26
276.12	1447.91
276.33	1415.15
276.55	1476.59
276.76	1435.63
276.97	1615.85
277.19	1415.15
277.40	1431.53
277.61	1435.63
277.83	1425.39
278.04	1499.11
278.26	1474.54
278.47	1511.40
278.68	1513.45
278.90	1456.11
279.11	1417.19
279.32	1492.97
279.54	1513.45
279.75	1423.34
279.96	1488.87
280.18	1427.43
280.39	1521.64
280.60	1417.19
280.82	1492.97
281.03	1431.53
281.24	1572.84
281.46	1556.46
281.67	1464.30
281.88	1382.38
282.10	1509.35
282.31	1382.38
282.52	1482.73
282.74	1406.95
282.95	1523.69
283.16	1466.35
283.37	1472.49
283.59	1447.91
283.80	1458.15
284.01	1490.92
284.23	1439.72
284.44	1423.34
284.65	1554.41
284.87	1423.34
285.08	1513.45
285.29	1492.97
285.51	1484.78
285.72	1415.15
285.93	1529.83
286.15	1490.92
286.36	1366.00
286.57	1431.53
286.78	1456.11
287.00	1499.11
287.21	1472.49
287.42	1374.19
287.64	1447.91
287.85	1443.82
288.06	1546.22
288.28	1525.74
288.49	1398.76
288.70	1482.73
288.91	1423.34
289.13	1505.26
289.34	1519.59
289.55	1437.67
289.77	1431.53
289.98	1513.45
290.19	1488.87
290.40	1443.82
290.62	1521.64
290.83	1427.43
291.04	1468.39
291.26	1382.38
291.47	1417.19
291.68	1482.73
291.89	1447.91
292.11	1546.22
292.32	1497.07
292.53	1535.98
292.74	1456.11
292.96	1480.68
293.17	1390.57
293.38	1538.02
293.60	1449.96
293.81	1433.58
294.02	1490.92
294.23	1456.11
294.45	1492.97
294.66	1525.74
294.87	1472.49
295.08	1441.77
295.30	1546.22
295.51	1447.91
295.72	1562.60
295.93	1517.54
296.15	1499.11
296.36	1492.97
296.57	1505.26
296.78	1486.83
297.00	1431.53
297.21	1460.20
297.42	1484.78
297.63	1411.05
297.85	1529.83
298.06	1464.30
298.27	1449.96
298.48	1488.87
298.70	1439.72
298.91	1669.09
299.12	1460.20
299.33	1562.60
299.55	1492.97
299.76	1392.62
299.97	1449.96
300.18	1368.04
300.40	1349.61
300.61	1488.87
300.82	1447.91
301.03	1449.96
301.24	1464.30
301.46	1456.11
301.67	1490.92
301.88	1417.19
302.09	1521.64
302.31	1390.57
302.52	1398.76
302.73	1538.02
302.94	1439.72
303.15	1427.43
303.37	1374.19
303.58	1464.30
303.79	1497.07
304.00	1546.22
304.22	1456.11
304.43	1538.02
304.64	1480.68
304.85	1437.67
305.06	1562.60
305.28	1472.49
305.49	1554.41
305.70	1480.68
305.91	1406.95
306.12	1505.26
306.34	1415.15
306.55	1406.95
306.76	1458.15
306.97	1619.94
307.18	1476.59
307.40	1488.87
307.61	1513.45
307.82	1474.54
308.03	1578.98
308.24	1540.07
308.46	1513.45
308.67	1574.89
308.88	1505.26
309.09	1638.38
309.30	1480.68
309.52	1499.11
309.73	1509.35
309.94	1402.86
310.15	1533.93
310.36	1490.92
310.57	1513.45
310.79	1538.02
311.00	1490.92
311.21	1433.58
311.42	1529.83
311.63	1566.70
311.85	1523.69
312.06	1490.92
312.27	1529.83
312.48	1550.31
312.69	1460.20
312.90	1538.02
313.12	1480.68
313.33	1505.26
313.54	1562.60
313.75	1443.82
313.96	1556.46
314.17	1474.54
314.39	1447.91
314.60	1513.45
314.81	1611.75
315.02	1370.09
315.23	1431.53
315.44	1499.11
315.65	1513.45
315.87	1521.64
316.08	1464.30
316.29	1499.11
316.50	1456.11
316.71	1525.74
316.92	1472.49
317.14	1480.68
317.35	1435.63
317.56	1558.50
317.77	1578.98
317.98	1439.72
318.19	1613.80
318.40	1458.15
318.62	1578.98
318.83	1484.78
319.04	1529.83
319.25	1490.92
319.46	1556.46
319.67	1488.87
319.88	1529.83
320.09	1550.31
320.31	1521.64
320.52	1505.26
320.73	1554.41
320.94	1415.15
321.15	1507.30
321.36	1529.83
321.57	1490.92
321.78	1529.83
322.00	1492.97
322.21	1480.68
322.42	1429.48
322.63	1603.56
322.84	1349.61
323.05	1603.56
323.26	1419.24
323.47	1492.97
323.69	1484.78
323.90	1517.54
324.11	1439.72
324.32	1501.16
324.53	1492.97
324.74	1546.22
324.95	1488.87
325.16	1513.45
325.37	1458.15
325.59	1472.49
325.80	1529.83
326.01	1548.26
326.22	1605.61
326.43	1525.74
326.64	1521.64
326.85	1531.88
327.06	1447.91
327.27	1513.45
327.48	1591.27
327.69	1583.08
327.91	1456.11
328.12	1480.68
328.33	1466.35
328.54	1400.81
328.75	1554.41
328.96	1589.22
329.17	1521.64
329.38	1560.55
329.59	1484.78
329.80	1857.51
330.01	1564.65
330.23	1574.89
330.44	1513.45
330.65	1521.64
330.86	1548.26
331.07	1415.15
331.28	1492.97
331.49	1456.11
331.70	1521.64
331.91	1423.34
332.12	1529.83
332.33	1546.22
332.54	1554.41
332.75	1525.74
332.96	1419.24
333.17	1505.26
333.39	1564.65
333.60	1505.26
333.81	1521.64
334.02	1423.34
334.23	1505.26
334.44	1415.15
334.65	1464.30
334.86	1447.91
335.07	1531.88
335.28	1492.97
335.49	1525.74
335.70	1529.83
335.91	1490.92
336.12	1466.35
336.33	1531.88
336.54	1466.35
336.75	1472.49
336.96	1538.02
337.17	1572.84
337.39	1423.34
337.60	1513.45
337.81	1548.26
338.02	1472.49
338.23	1509.35
338.44	1456.11
338.65	1445.87
338.86	1447.91
339.07	1546.22
339.28	1476.59
339.49	1621.99
339.70	1501.16
339.91	1505.26
340.12	1531.88
340.33	1452.01
340.54	1499.11
340.75	1550.31
340.96	1464.30
341.17	1538.02
341.38	1460.20
341.59	1554.41
341.80	1564.65
342.01	1474.54
342.22	1449.96
342.43	1452.01
342.64	1562.60
342.85	1581.03
343.06	1529.83
343.27	1472.49
343.48	1601.51
343.69	1419.24
343.90	1478.63
344.11	1521.64
344.32	1511.40
344.53	1546.22
344.74	1554.41
344.95	1415.15
345.16	1476.59
345.37	1529.83
345.58	1562.60
345.79	1480.68
346.00	1546.22
346.21	1398.76
346.42	1456.11
346.63	1525.74
346.84	1562.60
347.05	1466.35
347.26	1472.49
347.47	1435.63
347.68	1542.12
347.89	1497.07
348.10	1548.26
348.31	1546.22
348.52	1374.19
348.73	1558.50
348.94	1464.30
349.15	1607.66
349.36	1456.11
349.57	1419.24
349.78	1480.68
349.99	1449.96
350.20	1605.61
350.41	1464.30
350.62	1439.72
350.83	1472.49
351.04	1435.63
351.25	1527.78
351.46	1554.41
351.67	1474.54
351.88	1476.59
352.09	1468.39
352.30	1572.84
352.50	1570.79
352.71	1439.72
352.92	1449.96
353.13	1449.96
353.34	1460.20
353.55	1540.07
353.76	1431.53
353.97	1578.98
354.18	1587.18
354.39	1562.60
354.60	1613.80
354.81	1513.45
355.02	1587.18
355.23	1515.50
355.44	1472.49
355.65	1449.96
355.86	1505.26
356.07	1554.41
356.28	1578.98
356.48	1538.02
356.69	1499.11
356.90	1507.30
357.11	1515.50
357.32	1497.07
357.53	1472.49
357.74	1619.94
357.95	1554.41
358.16	1460.20
358.37	1439.72
358.58	1439.72
358.79	1427.43
359.00	1480.68
359.21	1402.86
359.41	1605.61
359.62	1538.02
359.83	1542.12
360.04	1497.07
360.25	1484.78
360.46	1497.07
360.67	1505.26
360.88	1433.58
361.09	1542.12
361.30	1546.22
361.51	1482.73
361.72	1464.30
361.92	1595.37
362.13	1515.50
362.34	1550.31
362.55	1474.54
362.76	1423.34
362.97	1533.93
363.18	1507.30
363.39	1556.46
363.60	1529.83
363.81	1431.53
364.01	1546.22
364.22	1603.56
364.43	1505.26
364.64	1460.20
364.85	1447.91
365.06	1523.69
365.27	1509.35
365.48	1505.26
365.69	1523.69
365.89	1445.87
366.10	1505.26
366.31	1501.16
366.52	1562.60
366.73	1587.18
366.94	1652.71
367.15	1472.49
367.36	1546.22
367.57	1636.33
367.77	1587.18
367.98	1562.60
368.19	1513.45
368.40	1509.35
368.61	1521.64
368.82	1488.87
369.03	1542.12
369.23	1662.95
369.44	1456.11
369.65	1431.53
369.86	1464.30
370.07	1480.68
370.28	1529.83
370.49	1533.93
370.70	1546.22
370.90	1476.59
371.11	1472.49
371.32	1466.35
371.53	1572.84
371.74	1497.07
371.95	1513.45
372.16	1488.87
372.36	1513.45
372.57	1521.64
372.78	1468.39
372.99	1452.01
373.20	1423.34
373.41	1419.24
373.61	1497.07
373.82	1540.07
374.03	1497.07
374.24	1515.50
374.45	1554.41
374.66	1480.68
374.86	1605.61
375.07	1583.08
375.28	1638.38
375.49	1488.87
375.70	1505.26
375.91	1574.89
376.11	1564.65
376.32	1525.74
376.53	1505.26
376.74	1523.69
376.95	1957.86
377.16	1540.07
377.36	1490.92
377.57	1499.11
377.78	1507.30
377.99	1542.12
378.20	1538.02
378.40	1578.98
378.61	1611.75
378.82	1476.59
379.03	1554.41
379.24	1613.80
379.45	1427.43
379.65	1449.96
379.86	1464.30
380.07	1466.35
380.28	1529.83
380.49	1562.60
380.69	1595.37
380.90	1644.52
381.11	1505.26
381.32	1488.87
381.53	1617.90
381.73	1523.69
381.94	1546.22
382.15	1439.72
382.36	1464.30
382.57	1574.89
382.77	1474.54
382.98	1456.11
383.19	1497.07
383.40	1587.18
383.60	1581.03
383.81	1564.65
384.02	1574.89
384.23	1501.16
384.44	1441.77
384.64	1540.07
384.85	1595.37
385.06	1521.64
385.27	1507.30
385.48	1488.87
385.68	1466.35
385.89	1492.97
386.10	1521.64
386.31	1476.59
386.51	1572.84
386.72	1546.22
386.93	1521.64
387.14	1583.08
387.34	1499.11
387.55	1499.11
387.76	1578.98
387.97	1509.35
388.17	1548.26
388.38	1521.64
388.59	1497.07
388.80	1558.50
389.01	1615.85
389.21	1578.98
389.42	1574.89
389.63	1521.64
389.84	1515.50
390.04	1624.04
390.25	1531.88
390.46	1521.64
390.67	1417.19
390.87	1529.83
391.08	1546.22
391.29	1472.49
391.49	1456.11
391.70	1447.91
391.91	1513.45
392.12	1423.34
392.32	1501.16
392.53	1447.91
392.74	1490.92
392.95	1484.78
393.15	1529.83
393.36	1562.60
393.57	1505.26
393.78	1591.27
393.98	1538.02
394.19	1521.64
394.40	1558.50
394.60	1529.83
394.81	1505.26
395.02	1345.52
395.23	1497.07
395.43	1484.78
395.64	1492.97
395.85	1419.24
396.06	1474.54
396.26	1517.54
396.47	1538.02
396.68	1513.45
396.88	1632.23
397.09	1673.19
397.30	1712.10
397.50	1765.35
397.71	1669.09
397.92	1718.25
398.13	1695.72
398.33	1476.59
398.54	1562.60
398.75	1497.07
398.95	1619.94
399.16	1538.02
399.37	1425.39
399.57	1523.69
399.78	1587.18
399.99	1406.95
400.20	1669.09
400.40	1546.22
400.61	1499.11
400.82	1425.39
401.02	1488.87
401.23	1564.65
401.44	1488.87
401.64	1492.97
401.85	1538.02
402.06	1525.74
402.26	1562.60
402.47	1505.26
402.68	1660.90
402.88	1480.68
403.09	1595.37
403.30	1423.34
403.50	1415.15
403.71	1628.14
403.92	1447.91
404.12	1472.49
404.33	1540.07
404.54	1521.64
404.74	1562.60
404.95	1538.02
405.16	1521.64
405.36	1521.64
405.57	1505.26
405.78	1513.45
405.98	1417.19
406.19	1486.83
406.40	1542.12
406.60	1570.79
406.81	1439.72
407.02	1515.50
407.22	1499.11
407.43	1417.19
407.64	1480.68
407.84	1423.34
408.05	1521.64
408.26	1419.24
408.46	1572.84
408.67	1593.32
408.87	1476.59
409.08	1505.26
409.29	1564.65
409.49	1521.64
409.70	1714.15
409.91	1849.32
410.11	2013.15
410.32	2267.10
410.53	2209.76
410.73	2316.25
410.94	2220.00
411.14	2105.31
411.35	1984.48
411.56	1890.28
411.76	1820.64
411.97	1677.29
412.18	1578.98
412.38	1441.77
412.59	1523.69
412.79	1406.95
413.00	1507.30
413.21	1513.45
413.41	1466.35
413.62	1423.34
413.82	1499.11
414.03	1566.70
414.24	1554.41
414.44	1419.24
414.65	1554.41
414.86	1484.78
415.06	1578.98
415.27	1566.70
415.47	1515.50
415.68	1480.68
415.89	1472.49
416.09	1509.35
416.30	1480.68
416.50	1495.02
416.71	1621.99
416.92	1400.81
417.12	1490.92
417.33	1492.97
417.53	1439.72
417.74	1482.73
417.94	1538.02
418.15	1566.70
418.36	1538.02
418.56	1562.60
418.77	1474.54
418.97	1570.79
419.18	1531.88
419.39	1447.91
419.59	1538.02
419.80	1492.97
420.00	1439.72
420.21	1464.30
420.41	1497.07
420.62	1581.03
420.83	1521.64
421.03	1572.84
421.24	1583.08
421.44	1447.91
421.65	1531.88
421.85	1554.41
422.06	1439.72
422.27	1472.49
422.47	1482.73
422.68	1460.20
422.88	1591.27
423.09	1441.77
423.29	1607.66
423.50	1548.26
423.70	1505.26
423.91	1533.93
424.12	1466.35
424.32	1474.54
424.53	1472.49
424.73	1562.60
424.94	1464.30
425.14	1525.74
425.35	1564.65
425.55	1521.64
425.76	1513.45
425.96	1529.83
426.17	1456.11
426.37	1497.07
426.58	1515.50
426.79	1558.50
426.99	1562.60
427.20	1554.41
427.40	1540.07
427.61	1456.11
427.81	1456.11
428.02	1538.02
428.22	1406.95
428.43	1533.93
428.63	1456.11
428.84	1509.35
429.04	1441.77
429.25	1538.02
429.45	1556.46
429.66	1533.93
429.86	1462.25
430.07	1542.12
430.27	1427.43
430.48	1648.61
430.68	1497.07
430.89	1540.07
431.09	1531.88
431.30	1402.86
431.50	1538.02
431.71	1615.85
431.91	1439.72
432.12	1558.50
432.32	1595.37
432.53	1546.22
432.73	1525.74
432.94	1564.65
433.14	1619.94
433.35	1652.71
433.55	2050.02
433.76	2897.88
433.96	4159.42
434.17	4925.36
434.37	5445.55
434.58	5322.67
434.78	5179.31
434.99	4511.68
435.19	3782.60
435.40	3295.18
435.60	2873.30
435.81	2539.48
436.01	2064.35
436.22	1925.09
436.42	1646.57
436.63	1587.18
436.83	1562.60
437.04	1554.41
437.24	1507.30
437.45	1499.11
437.65	1490.92
437.86	1505.26
438.06	1540.07
438.26	1578.98
438.47	1441.77
438.67	1490.92
438.88	1523.69
439.08	1474.54
439.29	1554.41
439.49	1513.45
439.70	1587.18
439.90	1490.92
440.11	1513.45
440.31	1603.56
440.52	1546.22
440.72	1523.69
440.92	1472.49
441.13	1484.78
441.33	1566.70
441.54	1578.98
441.74	1447.91
441.95	1505.26
442.15	1665.00
442.36	1591.27
442.56	1480.68
442.76	1521.64
442.97	1415.15
443.17	1488.87
443.38	1513.45
443.58	1497.07
443.79	1456.11
443.99	1468.39
444.19	1570.79
444.40	1431.53
444.60	1492.97
444.81	1423.34
445.01	1482.73
445.22	1470.44
445.42	1447.91
445.62	1525.74
445.83	1523.69
446.03	1636.33
446.24	1554.41
446.44	1540.07
446.64	1548.26
446.85	1415.15
447.05	1523.69
447.26	1447.91
447.46	1472.49
447.67	1441.77
447.87	1447.91
448.07	1564.65
448.28	1454.06
448.48	1521.64
448.69	1480.68
448.89	1488.87
449.09	1523.69
449.30	1466.35
449.50	1466.35
449.71	1449.96
449.91	1538.02
450.11	1456.11
450.32	1439.72
450.52	1427.43
450.72	1458.15
450.93	1554.41
451.13	1515.50
451.34	1538.02
451.54	1466.35
451.74	1460.20
451.95	1505.26
452.15	1472.49
452.36	1488.87
452.56	1540.07
452.76	1497.07
452.97	1415.15
453.17	1538.02
453.37	1458.15
453.58	1499.11
453.78	1423.34
453.98	1538.02
454.19	1513.45
454.39	1415.15
454.60	1464.30
454.80	1540.07
455.00	1515.50
455.21	1413.10
455.41	1548.26
455.61	1507.30
455.82	1482.73
456.02	1447.91
456.22	1546.22
456.43	1427.43
456.63	1531.88
456.84	1488.87
457.04	1521.64
457.24	1492.97
457.45	1497.07
457.65	1570.79
457.85	1415.15
458.06	1466.35
458.26	1468.39
458.46	1513.45
458.67	1466.35
458.87	1619.94
459.07	1613.80
459.28	1578.98
459.48	1513.45
459.68	1456.11
459.89	1411.05
460.09	1482.73
460.29	1581.03
460.50	1366.00
460.70	1468.39
460.90	1562.60
461.11	1456.11
461.31	1501.16
461.51	1538.02
461.72	1492.97
461.92	1538.02
462.12	1603.56
462.32	1581.03
462.53	1462.25
462.73	1966.05
462.93	1431.53
463.14	1626.09
463.34	1474.54
463.54	1546.22
463.75	1605.61
463.95	1507.30
464.15	1677.29
464.36	1529.83
464.56	1613.80
464.76	1415.15
464.96	1578.98
465.17	1439.72
465.37	1456.11
465.57	1447.91
465.78	1517.54
465.98	1425.39
466.18	1482.73
466.39	1474.54
466.59	1587.18
466.79	1466.35
466.99	1431.53
467.20	1462.25
467.40	1554.41
467.60	1406.95
467.81	1476.59
468.01	1578.98
468.21	1447.91
468.41	1486.83
468.62	1578.98
468.82	1480.68
469.02	1482.73
469.22	1478.63
469.43	1488.87
469.63	1531.88
469.83	1497.07
470.04	1572.84
470.24	1578.98
470.44	1492.97
470.64	1497.07
470.85	1441.77
471.05	1531.88
471.25	1546.22
471.45	1433.58
471.66	1542.12
471.86	1447.91
472.06	1488.87
472.26	1591.27
472.47	1570.79
472.67	1546.22
472.87	1525.74
473.07	1513.45
473.28	1433.58
473.48	1527.78
473.68	1556.46
473.88	1509.35
474.09	1517.54
474.29	1458.15
474.49	1597.42
474.69	1484.78
474.90	1468.39
475.10	1525.74
475.30	1554.41
475.50	1507.30
475.70	1472.49
475.91	1554.41
476.11	1484.78
476.31	1669.09
476.51	1570.79
476.72	1529.83
476.92	1417.19
477.12	1472.49
477.32	1480.68
477.53	1505.26
477.73	1517.54
477.93	1523.69
478.13	1472.49
478.33	1529.83
478.54	1505.26
478.74	1603.56
478.94	1513.45
479.14	1472.49
479.34	1613.80
479.55	1589.22
479.75	1558.50
479.95	1546.22
480.15	1562.60
480.35	1654.76
480.56	1589.22
480.76	1630.18
480.96	1583.08
481.16	1640.42
481.36	1581.03
481.57	1513.45
481.77	1566.70
481.97	1648.61
482.17	1529.83
482.37	1578.98
482.58	1562.60
482.78	1562.60
482.98	1611.75
483.18	1603.56
483.38	1611.75
483.58	1572.84
483.79	1603.56
483.99	1603.56
484.19	1734.63
484.39	1636.33
484.59	1759.21
484.80	1767.40
485.00	1785.83
485.20	1982.43
485.40	3053.52
485.60	9090.93
485.80	21814.96
486.01	36128.22
486.21	46091.58
486.41	54430.91
486.61	56302.76
486.81	50197.76
487.01	41868.67
487.22	34803.18
487.42	28706.38
487.62	23207.58
487.82	17915.63
488.02	13180.73
488.22	9637.74
488.42	6834.07
488.63	4675.51
488.83	3213.26
489.03	2381.79
489.23	2115.55
489.43	1873.89
489.63	1873.89
489.83	1720.29
490.04	1726.44
490.24	1644.52
490.44	1673.19
490.64	1587.18
490.84	1542.12
491.04	1736.68
491.24	1578.98
491.44	1525.74
491.65	1587.18
491.85	1497.07
492.05	1587.18
492.25	1546.22
492.45	1554.41
492.65	1548.26
492.85	1636.33
493.05	1628.14
493.26	1538.02
493.46	1548.26
493.66	1656.81
493.86	1529.83
494.06	1538.02
494.26	1619.94
494.46	1578.98
494.66	1546.22
494.86	1464.30
495.07	1505.26
495.27	1490.92
495.47	1482.73
495.67	1482.73
495.87	1515.50
496.07	1474.54
496.27	1521.64
496.47	1546.22
496.67	1540.07
496.87	1499.11
497.08	1535.98
497.28	1648.61
497.48	1505.26
497.68	1605.61
497.88	1497.07
498.08	1482.73
498.28	1558.50
498.48	1472.49
498.68	1482.73
498.88	1513.45
499.08	1554.41
499.29	1587.18
499.49	1497.07
499.69	1447.91
499.89	1562.60
500.09	1499.11
500.29	1546.22
500.49	1550.31
500.69	1615.85
500.89	1505.26
501.09	1505.26
501.29	1562.60
501.49	1507.30
501.69	1499.11
501.89	1529.83
502.09	1572.84
502.30	1556.46
502.50	1540.07
502.70	1529.83
502.90	1531.88
503.10	1460.20
503.30	1488.87
503.50	1523.69
503.70	1515.50
503.90	1507.30
504.10	1460.20
504.30	1492.97
504.50	1486.83
504.70	1480.68
504.90	1484.78
505.10	1505.26
505.30	1525.74
505.50	1529.83
505.70	1484.78
505.90	1441.77
506.10	1531.88
506.30	1546.22
506.50	1570.79
506.70	1517.54
506.90	1531.88
507.11	1505.26
507.31	1460.20
507.51	1492.97
507.71	1515.50
507.91	1452.01
508.11	1572.84
508.31	1439.72
508.51	1474.54
508.71	1554.41
508.91	1501.16
509.11	1464.30
509.31	1538.02
509.51	1449.96
509.71	1521.64
509.91	1517.54
510.11	1515.50
510.31	1574.89
510.51	1578.98
510.71	1460.20
510.91	1464.30
511.11	1439.72
511.31	1581.03
511.51	1492.97
511.71	1443.82
511.91	1515.50
512.11	1492.97
512.31	1464.30
512.51	1513.45
512.71	1505.26
512.91	1488.87
513.11	1488.87
513.31	1472.49
513.51	1492.97
513.71	1480.68
513.91	1460.20
514.11	1546.22
514.31	1519.59
514.51	1587.18
514.71	1468.39
514.90	1499.11
515.10	1490.92
515.30	1449.96
515.50	1488.87
515.70	1546.22
515.90	1488.87
516.10	1497.07
516.30	1357.80
516.50	1497.07
516.70	1490.92
516.90	1415.15
517.10	1400.81
517.30	1554.41
517.50	1447.91
517.70	1400.81
517.90	1490.92
518.10	1499.11
518.30	1583.08
518.50	1417.19
518.70	1441.77
518.90	1452.01
519.10	1517.54
519.30	1531.88
519.50	1521.64
519.69	1529.83
519.89	1507.30
520.09	1466.35
520.29	1476.59
520.49	1513.45
520.69	1509.35
520.89	1423.34
521.09	1544.17
521.29	1804.26
521.49	1499.11
521.69	1529.83
521.89	1492.97
522.09	1456.11
522.29	1507.30
522.48	1556.46
522.68	1480.68
522.88	1488.87
523.08	1480.68
523.28	1556.46
523.48	1570.79
523.68	1423.34
523.88	1566.70
524.08	1513.45
524.28	1492.97
524.48	1515.50
524.68	1513.45
524.87	1482.73
525.07	1529.83
525.27	1474.54
525.47	1492.97
525.67	1521.64
525.87	1513.45
526.07	1472.49
526.27	1460.20
526.47	1456.11
526.67	1492.97
526.86	1419.24
527.06	1546.22
527.26	1497.07
527.46	1587.18
527.66	1542.12
527.86	1460.20
528.06	1456.11
528.26	1607.66
528.46	1460.20
528.65	1476.59
528.85	1441.77
529.05	1466.35
529.25	1482.73
529.45	1499.11
529.65	1497.07
529.85	1515.50
530.05	1456.11
530.24	1562.60
530.44	1490.92
530.64	1587.18
530.84	1540.07
531.04	1447.91
531.24	1538.02
531.44	1423.34
531.63	1482.73
531.83	1538.02
532.03	1515.50
532.23	1562.60
532.43	1597.42
532.63	1501.16
532.83	1382.38
533.02	1507.30
533.22	1480.68
533.42	1415.15
533.62	1513.45
533.82	1466.35
534.02	1472.49
534.22	1482.73
534.41	1447.91
534.61	1488.87
534.81	1572.84
535.01	1533.93
535.21	1540.07
535.41	1474.54
535.60	1431.53
535.80	1515.50
536.00	1484.78
536.20	1456.11
536.40	1482.73
536.60	1513.45
536.79	1564.65
536.99	1431.53
537.19	1574.89
537.39	1564.65
537.59	1546.22
537.78	1415.15
537.98	1490.92
538.18	1456.11
538.38	1499.11
538.58	1382.38
538.77	1505.26
538.97	1392.62
539.17	1570.79
539.37	1474.54
539.57	1497.07
539.77	1523.69
539.96	1439.72
540.16	1554.41
540.36	1529.83
540.56	1458.15
540.76	1497.07
540.95	1554.41
541.15	1482.73
541.35	1488.87
541.55	1523.69
541.74	1400.81
541.94	1583.08
542.14	1517.54
542.34	1523.69
542.54	1474.54
542.73	1578.98
542.93	1529.83
543.13	1474.54
543.33	1460.20
543.53	1476.59
543.72	1578.98
543.92	1525.74
544.12	1456.11
544.32	1546.22
544.51	1529.83
544.71	1452.01
544.91	1511.40
545.11	1435.63
545.30	1540.07
545.50	1415.15
545.70	1499.11
545.90	1470.44
546.10	1472.49
546.29	1591.27
546.49	1556.46
546.69	1566.70
546.89	1474.54
547.08	1488.87
547.28	1431.53
547.48	1605.61
547.68	1558.50
547.87	1419.24
548.07	1476.59
548.27	1417.19
548.47	1390.57
548.66	1546.22
548.86	1488.87
549.06	1523.69
549.25	1466.35
549.45	1509.35
549.65	1538.02
549.85	1572.84
550.04	1462.25
550.24	1509.35
550.44	1349.61
550.64	1476.59
550.83	1490.92
551.03	1488.87
551.23	1394.67
551.43	1488.87
551.62	1349.61
551.82	1431.53
552.02	1507.30
552.21	1398.76
552.41	1509.35
552.61	1472.49
552.81	1349.61
553.00	1447.91
553.20	1376.24
553.40	1474.54
553.59	1525.74
553.79	1472.49
553.99	1460.20
554.18	1419.24
554.38	1488.87
554.58	1480.68
554.78	1497.07
554.97	1398.76
555.17	1529.83
555.37	1464.30
555.56	1447.91
555.76	1464.30
555.96	1411.05
556.15	1406.95
556.35	1386.47
556.55	1417.19
556.74	1398.76
556.94	1546.22
557.14	1361.90
557.34	1378.28
557.53	1499.11
557.73	1390.57
557.93	1423.34
558.12	1482.73
558.32	1447.91
558.52	1480.68
558.71	1449.96
558.91	1456.11
559.11	1443.82
559.30	1406.95
559.50	1431.53
559.70	1390.57
559.89	1509.35
560.09	1439.72
560.29	1366.00
560.48	1507.30
560.68	1384.43
560.88	1456.11
561.07	1378.28
561.27	1427.43
561.46	1542.12
561.66	1546.22
561.86	1370.09
562.05	1409.00
562.25	1409.00
562.45	1497.07
562.64	1357.80
562.84	1505.26
563.04	1466.35
563.23	1464.30
563.43	1406.95
563.63	1546.22
563.82	1447.91
564.02	1472.49
564.21	1431.53
564.41	1570.79
564.61	1542.12
564.80	1513.45
565.00	1400.81
565.20	1501.16
565.39	1419.24
565.59	1423.34
565.78	1431.53
565.98	1581.03
566.18	1411.05
566.37	1480.68
566.57	1384.43
566.77	1472.49
566.96	1402.86
567.16	1497.07
567.35	1409.00
567.55	1427.43
567.75	1456.11
567.94	1392.62
568.14	1529.83
568.33	1449.96
568.53	1447.91
568.73	1497.07
568.92	1411.05
569.12	1406.95
569.31	1394.67
569.51	1452.01
569.71	1449.96
569.90	1433.58
570.10	1435.63
570.29	1554.41
570.49	1406.95
570.69	1439.72
570.88	1343.47
571.08	1406.95
571.27	1392.62
571.47	1470.44
571.66	1398.76
571.86	1406.95
572.06	1431.53
572.25	1447.91
572.45	1392.62
572.64	1433.58
572.84	1482.73
573.03	1406.95
573.23	1472.49
573.43	1499.11
573.62	1409.00
573.82	1517.54
574.01	1423.34
574.21	1345.52
574.40	1464.30
574.60	1447.91
574.79	1384.43
574.99	1433.58
575.19	1490.92
575.38	1513.45
575.58	1452.01
575.77	1515.50
575.97	1439.72
576.16	1447.91
576.36	1382.38
576.55	1398.76
576.75	1515.50
576.94	1488.87
577.14	1454.06
577.34	1411.05
577.53	1513.45
577.73	1484.78
577.92	1474.54
578.12	1513.45
578.31	1409.00
578.51	1533.93
578.70	1456.11
578.90	1525.74
579.09	1480.68
579.29	1501.16
579.48	1456.11
579.68	1482.73
579.87	1474.54
580.07	1499.11
580.26	1433.58
580.46	1398.76
580.65	1464.30
580.85	1423.34
581.04	1538.02
581.24	1468.39
581.43	1546.22
581.63	1398.76
581.82	1464.30
582.02	1423.34
582.21	1540.07
582.41	1452.01
582.60	1468.39
582.80	1497.07
582.99	1417.19
583.19	1390.57
583.38	1433.58
583.58	1398.76
583.77	1439.72
583.97	1435.63
584.16	1550.31
584.36	1417.19
584.55	1318.89
584.75	1460.20
584.94	1456.11
585.14	1499.11
585.33	1357.80
585.53	1505.26
585.72	1390.57
585.92	1499.11
586.11	1468.39
586.31	1546.22
586.50	1452.01
586.70	1452.01
586.89	1390.57
587.09	1415.15
587.28	1378.28
587.47	1439.72
587.67	1476.59
587.86	1464.30
588.06	1411.05
588.25	1513.45
588.45	1376.24
588.64	1382.38
588.84	1409.00
589.03	1419.24
589.23	1435.63
589.42	1439.72
589.61	1400.81
589.81	1531.88
590.00	1398.76
590.20	1472.49
590.39	1361.90
590.59	1456.11
590.78	1382.38
590.98	1415.15
591.17	1374.19
591.36	1449.96
591.56	1492.97
591.75	1552.36
591.95	1480.68
592.14	1351.66
592.34	1431.53
592.53	1509.35
592.72	1415.15
592.92	1497.07
593.11	1351.66
593.31	1439.72
593.50	1454.06
593.69	1523.69
593.89	1456.11
594.08	1445.87
594.28	1480.68
594.47	1515.50
594.67	1562.60
594.86	1441.77
595.05	1492.97
595.25	1515.50
595.44	1392.62
595.64	1427.43
595.83	1497.07
596.02	1538.02
596.22	1435.63
596.41	1433.58
596.61	1488.87
596.80	1441.77
596.99	1402.86
597.19	1333.23
597.38	1449.96
597.58	1501.16
597.77	1490.92
597.96	1431.53
598.16	1441.77
598.35	1538.02
598.54	1415.15
598.74	1415.15
598.93	1476.59
599.13	1431.53
599.32	1357.80
599.51	1384.43
599.71	1499.11
599.90	1497.07
600.09	1439.72
600.29	1361.90
600.48	1417.19
600.68	1488.87
600.87	1456.11
601.06	1499.11
601.26	1382.38
601.45	1415.15
601.64	1476.59
601.84	1515.50
602.03	1478.63
602.22	1521.64
602.42	1431.53
602.61	1351.66
602.80	1406.95
603.00	1468.39
603.19	1415.15
603.38	1538.02
603.58	1482.73
603.77	1411.05
603.96	1423.34
604.16	1423.34
604.35	1419.24
604.54	1554.41
604.74	1456.11
604.93	1447.91
605.12	1353.71
605.32	1431.53
605.51	1400.81
605.70	1390.57
605.90	1370.09
606.09	1447.91
606.28	1341.42
606.48	1513.45
606.67	1439.72
606.86	1480.68
607.06	1406.95
607.25	1449.96
607.44	1486.83
607.64	1456.11
607.83	1449.96
608.02	1398.76
608.22	1480.68
608.41	1472.49
608.60	1376.24
608.79	1415.15
608.99	1431.53
609.18	1587.18
609.37	1398.76
609.57	1460.20
609.76	1368.04
609.95	1398.76
610.15	1423.34
610.34	1417.19
610.53	1458.15
610.72	1488.87
610.92	1437.67
611.11	1447.91
611.30	1488.87
611.50	1460.20
611.69	1464.30
611.88	1492.97
612.07	1546.22
612.27	1431.53
612.46	1447.91
612.65	1343.47
612.84	1390.57
613.04	1398.76
613.23	1415.15
613.42	1374.19
613.62	1513.45
613.81	1499.11
614.00	1497.07
614.19	1415.15
614.39	1411.05
614.58	1531.88
614.77	1474.54
614.96	1517.54
615.16	1517.54
615.35	1497.07
615.54	1458.15
615.73	1497.07
615.93	1421.29
616.12	1578.98
616.31	1400.81
616.50	1472.49
616.70	1474.54
616.89	1468.39
617.08	1492.97
617.27	1447.91
617.47	1525.74
617.66	1513.45
617.85	1513.45
618.04	1443.82
618.23	1468.39
618.43	1415.15
618.62	1435.63
618.81	1497.07
619.00	1441.77
619.20	1431.53
619.39	1439.72
619.58	1597.42
619.77	1431.53
619.96	1396.71
620.16	1452.01
620.35	1460.20
620.54	1431.53
620.73	1357.80
620.93	1449.96
621.12	1433.58
621.31	1376.24
621.50	1480.68
621.69	1497.07
621.89	1433.58
622.08	1390.57
622.27	1431.53
622.46	1456.11
622.65	1439.72
622.85	1353.71
623.04	1513.45
623.23	1431.53
623.42	1361.90
623.61	1425.39
623.81	1540.07
624.00	1449.96
624.19	1488.87
624.38	1488.87
624.57	1429.48
624.76	1484.78
624.96	1423.34
625.15	1386.47
625.34	1474.54
625.53	1497.07
625.72	1439.72
625.91	1441.77
626.11	1488.87
626.30	1402.86
626.49	1497.07
626.68	1398.76
626.87	1464.30
627.06	1497.07
627.26	1409.00
627.45	1447.91
627.64	1497.07
627.83	1468.39
628.02	1398.76
628.21	1480.68
628.41	1447.91
628.60	1431.53
628.79	1341.42
628.98	1499.11
629.17	1431.53
629.36	1531.88
629.55	1447.91
629.75	1433.58
629.94	1382.38
630.13	1419.24
630.32	1406.95
630.51	1417.19
630.70	1456.11
630.89	1447.91
631.09	1411.05
631.28	1447.91
631.47	1548.26
631.66	1402.86
631.85	1466.35
632.04	1464.30
632.23	1390.57
632.42	1497.07
632.62	1474.54
632.81	1390.57
633.00	1542.12
633.19	1374.19
633.38	1427.43
633.57	1458.15
633.76	1521.64
633.95	1464.30
634.14	1394.67
634.34	1462.25
634.53	1384.43
634.72	1382.38
634.91	1581.03
635.10	1417.19
635.29	1447.91
635.48	1439.72
635.67	1419.24
635.86	1476.59
636.05	1488.87
636.24	1376.24
636.44	1376.24
636.63	1482.73
636.82	1449.96
637.01	1587.18
637.20	1382.38
637.39	1458.15
637.58	1464.30
637.77	1406.95
637.96	1456.11
638.15	1415.15
638.34	1337.32
638.53	1421.29
638.73	1517.54
638.92	1370.09
639.11	1533.93
639.30	1447.91
639.49	1431.53
639.68	1337.32
639.87	1452.01
640.06	1452.01
640.25	1456.11
640.44	1456.11
640.63	1439.72
640.82	1456.11
641.01	1466.35
641.20	1546.22
641.39	1398.76
641.58	1415.15
641.77	1406.95
641.96	1382.38
642.16	1454.06
642.35	1488.87
642.54	1488.87
642.73	1370.09
642.92	1472.49
643.11	1542.12
643.30	1427.43
643.49	1447.91
643.68	1529.83
643.87	1386.47
644.06	1427.43
644.25	1400.81
644.44	1435.63
644.63	1464.30
644.82	1431.53
645.01	1353.71
645.20	1449.96
645.39	1490.92
645.58	1406.95
645.77	1456.11
645.96	1464.30
646.15	1447.91
646.34	1474.54
646.53	1474.54
646.72	1513.45
646.91	1472.49
647.10	1386.47
647.29	1425.39
647.48	1570.79
647.67	1447.91
647.86	1435.63
648.05	1447.91
648.24	1497.07
648.43	1501.16
648.62	1425.39
648.81	1406.95
649.00	1439.72
649.19	1513.45
649.38	1384.43
649.57	1431.53
649.76	1435.63
649.95	1478.63
650.14	1431.53
650.33	1384.43
650.52	1382.38
650.71	1366.00
650.90	1433.58
651.09	1529.83
651.28	1525.74
651.47	1472.49
651.66	1466.35
651.85	1490.92
652.04	1464.30
652.23	1402.86
652.42	1456.11
652.61	1452.01
652.80	1515.50
652.99	1427.43
653.17	1554.41
653.36	1515.50
653.55	1521.64
653.74	1509.35
653.93	1406.95
654.12	1572.84
654.31	1488.87
654.50	1490.92
654.69	1497.07
654.88	1550.31
655.07	1628.14
655.26	1751.01
655.45	2504.67
655.64	4577.21
655.83	7468.94
656.02	11495.25
656.21	15302.42
656.39	19236.57
656.58	22083.25
656.77	22593.19
656.96	21986.99
657.15	20145.87
657.34	18511.59
657.53	16867.07
657.72	15746.83
657.91	15066.91
658.10	13385.52
658.29	11843.40
658.48	9770.86
658.67	8005.51
658.85	6326.18
659.04	4956.08
659.23	3897.28
659.42	3135.44
659.61	2494.43
659.80	2168.80
659.99	1996.77
660.18	1751.01
660.37	1718.25
660.56	1521.64
660.74	1595.37
660.93	1630.18
661.12	1554.41
661.31	1533.93
661.50	1554.41
661.69	1433.58
661.88	1505.26
662.07	1513.45
662.26	1513.45
662.44	1501.16
662.63	1507.30
662.82	1492.97
663.01	1482.73
663.20	1480.68
663.39	1521.64
663.58	1509.35
663.77	1456.11
663.95	1517.54
664.14	1447.91
664.33	1415.15
664.52	1458.15
664.71	1546.22
664.90	1472.49
665.09	1429.48
665.27	1542.12
665.46	1443.82
665.65	1439.72
665.84	1501.16
666.03	1488.87
666.22	1425.39
666.41	1570.79
666.59	1480.68
666.78	1329.13
666.97	1394.67
667.16	1480.68
667.35	1484.78
667.54	1423.34
667.72	1488.87
667.91	1417.19
668.10	1511.40
668.29	1394.67
668.48	1482.73
668.67	1480.68
668.85	1472.49
669.04	1562.60
669.23	1468.39
669.42	1406.95
669.61	1482.73
669.80	1515.50
669.98	1472.49
670.17	1449.96
670.36	1490.92
670.55	1394.67
670.74	1376.24
670.92	1484.78
671.11	1439.72
671.30	1456.11
671.49	1531.88
671.68	1488.87
671.86	1398.76
672.05	1529.83
672.24	1468.39
672.43	1390.57
672.62	1431.53
672.80	1443.82
672.99	1484.78
673.18	1513.45
673.37	1449.96
673.56	1443.82
673.74	1441.77
673.93	1507.30
674.12	1357.80
674.31	1474.54
674.50	1327.08
674.68	1386.47
674.87	1464.30
675.06	1472.49
675.25	1368.04
675.43	1406.95
675.62	1390.57
675.81	1431.53
676.00	1505.26
676.19	1492.97
676.37	1411.05
676.56	1423.34
676.75	1415.15
676.94	1417.19
677.12	1425.39
677.31	1447.91
677.50	1476.59
677.69	1409.00
677.87	1279.98
678.06	1521.64
678.25	1357.80
678.44	1382.38
678.62	1343.47
678.81	1382.38
679.00	1480.68
679.19	1398.76
679.37	1417.19
679.56	1423.34
679.75	1484.78
679.94	1482.73
680.12	1435.63
680.31	1482.73
680.50	1480.68
680.68	1488.87
680.87	1415.15
681.06	1529.83
681.25	1507.30
681.43	1398.76
681.62	1462.25
681.81	1499.11
682.00	1394.67
682.18	1447.91
682.37	1345.52
682.56	1458.15
682.74	1472.49
682.93	1497.07
683.12	1382.38
683.31	1439.72
683.49	1456.11
683.68	1472.49
683.87	1357.80
684.05	1417.19
684.24	1464.30
684.43	1433.58
684.61	1452.01
684.80	1361.90
684.99	1417.19
685.18	1402.86
685.36	1433.58
685.55	1400.81
685.74	1398.76
685.92	1464.30
686.11	1406.95
686.30	1439.72
686.48	1439.72
686.67	1415.15
686.86	1488.87
687.04	1421.29
687.23	1456.11
687.42	1439.72
687.60	1468.39
687.79	1464.30
687.98	1476.59
688.16	1507.30
688.35	1423.34
688.54	1515.50
688.72	1923.04
688.91	1417.19
689.10	1406.95
689.28	1398.76
689.47	1521.64
689.66	1548.26
689.84	1447.91
690.03	1466.35
690.22	1425.39
690.40	1402.86
690.59	1402.86
690.78	1449.96
690.96	1437.67
691.15	1370.09
691.34	1417.19
691.52	1480.68
691.71	1390.57
691.89	1449.96
692.08	1423.34
692.27	1505.26
692.45	1456.11
692.64	1427.43
692.83	1386.47
693.01	1343.47
693.20	1480.68
693.38	1411.05
693.57	1437.67
693.76	1431.53
693.94	1540.07
694.13	1613.80
694.32	1433.58
694.50	1480.68
694.69	1357.80
694.87	1458.15
695.06	1482.73
695.25	1394.67
695.43	1488.87
695.62	1406.95
695.80	1513.45
695.99	1439.72
696.18	1409.00
696.36	1472.49
696.55	1456.11
696.73	1425.39
696.92	1484.78
697.11	1447.91
697.29	1513.45
697.48	1515.50
697.66	1548.26
697.85	1431.53
698.04	1411.05
698.22	1472.49
698.41	1333.23
698.59	1382.38
698.78	1304.56
698.96	1423.34
699.15	1497.07
699.34	1501.16
699.52	1447.91
699.71	1456.11
699.89	1452.01
700.08	1423.34
700.26	1445.87
700.45	1499.11
700.64	1472.49
700.82	1464.30
701.01	1431.53
701.19	1505.26
701.38	1474.54
701.56	1466.35
701.75	1415.15
701.93	1398.76
702.12	1396.71
702.31	1447.91
702.49	1392.62
702.68	1474.54
702.86	1423.34
703.05	1515.50
703.23	1456.11
703.42	1621.99
703.60	1464.30
703.79	1478.63
703.97	1316.84
704.16	1464.30
704.34	1490.92
704.53	1488.87
704.72	1374.19
704.90	1433.58
705.09	1482.73
705.27	1431.53
705.46	1390.57
705.64	1480.68
705.83	1361.90
706.01	1456.11
706.20	1357.80
706.38	1472.49
706.57	1415.15
706.75	1456.11
706.94	1488.87
707.12	1394.67
707.31	1411.05
707.49	1497.07
707.68	1488.87
707.86	1452.01
708.05	1509.35
708.23	1472.49
708.42	1415.15
708.60	1431.53
708.79	1427.43
708.97	1480.68
709.16	1523.69
709.34	1441.77
709.53	1402.86
709.71	1497.07
709.90	1433.58
710.08	1476.59
710.27	1361.90
710.45	1447.91
710.64	1431.53
710.82	1433.58
711.00	1730.53
711.19	1480.68
711.37	1402.86
711.56	1402.86
711.74	1447.91
711.93	1406.95
712.11	1425.39
712.30	1406.95
712.48	1419.24
712.67	1439.72
712.85	1406.95
713.04	1392.62
713.22	1507.30
713.40	1376.24
713.59	1439.72
713.77	1484.78
713.96	1507.30
714.14	1507.30
714.33	1474.54
714.51	1441.77
714.70	1476.59
714.88	1472.49
715.06	1378.28
715.25	1329.13
715.43	1466.35
715.62	1398.76
715.80	1492.97
715.99	1447.91
716.17	1439.72
716.35	1423.34
716.54	1466.35
716.72	1531.88
716.91	1396.71
717.09	1521.64
717.28	1482.73
717.46	1542.12
717.64	1439.72
717.83	1441.77
718.01	1312.75
718.20	1456.11
718.38	1452.01
718.56	1394.67
718.75	1464.30
718.93	1431.53
719.12	1415.15
719.30	1439.72
719.48	1409.00
719.67	1390.57
719.85	1382.38
720.04	1476.59
720.22	1435.63
720.40	1406.95
720.59	1521.64
720.77	1447.91
720.96	1423.34
721.14	1427.43
721.32	1433.58
721.51	1415.15
721.69	1464.30
721.87	1374.19
722.06	1505.26
722.24	1449.96
722.43	1456.11
722.61	1433.58
722.79	1507.30
722.98	1439.72
723.16	1472.49
723.34	1409.00
723.53	1357.80
723.71	1456.11
723.90	1398.76
724.08	1431.53
724.26	1472.49
724.45	1474.54
724.63	1456.11
724.81	1374.19
725.00	1484.78
725.18	1431.53
725.36	1439.72
725.55	1464.30
725.73	1431.53
725.91	1447.91
726.10	1382.38
726.28	1441.77
726.46	1441.77
726.65	1482.73
726.83	1492.97
727.01	1443.82
727.20	1441.77
727.38	1476.59
727.56	1464.30
727.75	1439.72
727.93	1427.43
728.11	1392.62
728.30	1439.72
728.48	1316.84
728.66	1398.76
728.85	1357.80
729.03	1482.73
729.21	1398.76
729.40	1472.49
729.58	1427.43
729.76	1409.00
729.94	1480.68
730.13	1476.59
730.31	1402.86
730.49	1382.38
730.68	1406.95
730.86	1460.20
731.04	1521.64
731.23	1406.95
731.41	1341.42
731.59	1357.80
731.77	1417.19
731.96	1507.30
732.14	1513.45
732.32	1435.63
732.51	1402.86
732.69	1439.72
732.87	1382.38
733.05	1497.07
733.24	1458.15
733.42	1423.34
733.60	1341.42
733.79	1357.80
733.97	1452.01
734.15	1443.82
734.33	1402.86
734.52	1427.43
734.70	1499.11
734.88	1488.87
735.06	1433.58
735.25	1456.11
735.43	1466.35
735.61	1337.32
735.79	1431.53
735.98	1458.15
736.16	1742.82
736.34	1456.11
736.52	1431.53
736.71	1492.97
736.89	1411.05
737.07	1472.49
737.25	1423.34
737.44	1419.24
737.62	1480.68
737.80	1423.34
737.98	1417.19
738.17	1415.15
738.35	1431.53
738.53	1449.96
738.71	1507.30
738.89	1464.30
739.08	1431.53
739.26	1472.49
739.44	1382.38
739.62	1425.39
739.81	1488.87
739.99	1341.42
740.17	1439.72
740.35	1431.53
740.53	1460.20
740.72	1460.20
740.90	1460.20
741.08	1382.38
741.26	1349.61
741.44	1447.91
741.63	1480.68
741.81	1513.45
741.99	1351.66
742.17	1488.87
742.35	1423.34
742.54	1409.00
742.72	1509.35
742.90	1435.63
743.08	1374.19
743.26	1382.38
743.45	1613.80
743.63	1439.72
743.81	1447.91
743.99	1417.19
744.17	1484.78
744.35	1460.20
744.54	1472.49
744.72	1497.07
744.90	1406.95
745.08	1390.57
745.26	1501.16
745.44	1406.95
745.63	1480.68
745.81	1443.82
745.99	1439.72
746.17	1423.34
746.35	1415.15
746.53	1415.15
746.72	1357.80
746.90	1513.45
747.08	1497.07
747.26	1480.68
747.44	1499.11
747.62	1535.98
747.81	1423.34
747.99	1357.80
748.17	1417.19
748.35	1411.05
748.53	1406.95
748.71	1443.82
748.89	1472.49
749.07	1472.49
749.26	1406.95
749.44	1513.45
749.62	1376.24
749.80	1458.15
749.98	1425.39
750.16	1415.15
750.34	1497.07
750.52	1415.15
750.71	1384.43
750.89	1427.43
751.07	1425.39
751.25	1341.42
751.43	1341.42
751.61	1439.72
751.79	1423.34
751.97	1376.24
752.15	1447.91
752.34	1492.97
752.52	1333.23
752.70	1480.68
752.88	1531.88
753.06	1476.59
753.24	1423.34
753.42	1325.04
753.60	1415.15
753.78	1464.30
753.96	1398.76
754.15	1472.49
754.33	1411.05
754.51	1507.30
754.69	1439.72
754.87	1441.77
755.05	1505.26
755.23	1394.67
755.41	1392.62
755.59	1376.24
755.77	1398.76
755.95	1449.96
756.13	1513.45
756.31	1374.19
756.50	1411.05
756.68	1329.13
756.86	1398.76
757.04	1384.43
757.22	1531.88
757.40	1435.63
757.58	1374.19
757.76	1548.26
757.94	1488.87
758.12	1464.30
758.30	1505.26
758.48	1366.00
758.66	1423.34
758.84	1452.01
759.02	1464.30
759.20	1515.50
759.38	1519.59
759.56	1349.61
759.74	1538.02
759.92	1462.25
760.10	1480.68
760.28	1402.86
760.47	1406.95
760.65	1472.49
760.83	1513.45
761.01	1343.47
761.19	1415.15
761.37	1409.00
761.55	1400.81
761.73	1390.57
761.91	1468.39
762.09	1400.81
762.27	1400.81
762.45	1468.39
762.63	1456.11
762.81	1497.07
762.99	1538.02
763.17	1449.96
763.35	1464.30
763.53	1441.77
763.71	1482.73
763.89	1775.59
764.07	1423.34
764.25	1540.07
764.43	1439.72
764.61	1497.07
764.79	1439.72
764.97	1374.19
765.15	1591.27
765.33	1398.76
765.51	1538.02
765.69	1427.43
765.87	1366.00
766.05	1433.58
766.23	1466.35
766.41	1435.63
766.58	1462.25
766.76	1361.90
766.94	1411.05
767.12	1480.68
767.30	1394.67
767.48	1353.71
767.66	1515.50
767.84	1427.43
768.02	1521.64
768.20	1538.02
768.38	1490.92
768.56	1390.57
768.74	1366.00
768.92	1499.11
769.10	1521.64
769.28	1480.68
769.46	1423.34
769.64	1492.97
769.82	1472.49
770.00	1441.77
770.18	1439.72
770.36	1507.30
770.53	1513.45
770.71	1523.69
770.89	1431.53
771.07	1425.39
771.25	1390.57
771.43	1390.57
771.61	1427.43
771.79	1368.04
771.97	1368.04
772.15	1456.11
772.33	1374.19
772.51	1357.80
772.69	1431.53
772.86	1361.90
773.04	1466.35
773.22	1468.39
773.40	1431.53
773.58	1413.10
773.76	1429.48
773.94	1378.28
774.12	1425.39
774.30	1472.49
774.48	1425.39
774.65	1433.58
774.83	1452.01
775.01	1490.92
775.19	1460.20
775.37	1443.82
775.55	1431.53
775.73	1402.86
775.91	1423.34
776.09	1476.59
776.26	1308.65
776.44	1400.81
776.62	1488.87
776.80	1423.34
776.98	1406.95
777.16	1513.45
777.34	1499.11
777.52	1439.72
777.69	1607.66
777.87	1419.24
778.05	1480.68
778.23	1349.61
778.41	1599.46
778.59	1441.77
778.77	1431.53
778.94	1447.91
779.12	1431.53
779.30	1472.49
779.48	1482.73
779.66	1468.39
779.84	1447.91
780.02	1415.15
780.19	1394.67
780.37	1441.77
780.55	1482.73
780.73	1382.38
780.91	1505.26
781.09	1490.92
781.26	1554.41
781.44	1441.77
781.62	1437.67
781.80	1398.76
781.98	1433.58
782.16	1374.19
782.33	1427.43
782.51	1501.16
782.69	1439.72
782.87	1482.73
783.05	1402.86
783.22	1628.14
783.40	1357.80
783.58	1449.96
783.76	1443.82
783.94	1464.30
784.12	1464.30
784.29	1425.39
784.47	1476.59
784.65	1458.15
784.83	1480.68
785.01	1490.92
785.18	1505.26
785.36	1431.53
785.54	1525.74
785.72	1490.92
785.89	1562.60
786.07	1447.91
786.25	1460.20
786.43	1447.91
786.61	1376.24
786.78	1415.15
786.96	1497.07
787.14	1497.07
787.32	1441.77
787.49	1484.78
787.67	1374.19
787.85	1415.15
788.03	1441.77
788.21	1509.35
788.38	1480.68
788.56	1378.28
788.74	1333.23
788.92	1460.20
789.09	1433.58
789.27	1394.67
789.45	1382.38
789.63	1366.00
789.80	1474.54
789.98	1472.49
790.16	1460.20
790.34	1423.34
790.51	1423.34
790.69	1449.96
790.87	1411.05
791.05	1447.91
791.22	1480.68
791.40	1413.10
791.58	1480.68
791.76	1507.30
791.93	1548.26
792.11	1521.64
792.29	1423.34
792.46	1417.19
792.64	1409.00
792.82	1497.07
793.00	1390.57
793.17	1374.19
793.35	1456.11
793.53	1501.16
793.70	1464.30
793.88	1400.81
794.06	1482.73
794.24	1480.68
794.41	1427.43
794.59	1484.78
794.77	1447.91
794.94	1529.83
795.12	1507.30
795.30	1370.09
795.47	1460.20
795.65	1359.85
795.83	1390.57
796.01	1433.58
796.18	1384.43
796.36	1349.61
796.54	1497.07
796.71	1505.26
796.89	1488.87
797.07	1464.30
797.24	1425.39
797.42	1513.45
797.60	1505.26
797.77	1529.83
797.95	1529.83
798.13	1372.14
798.30	1427.43
798.48	1390.57
798.66	1490.92
798.83	1529.83
799.01	1441.77
799.19	1466.35
799.36	1513.45
799.54	1390.57
799.72	1497.07
799.89	1431.53
800.07	1546.22
800.25	1411.05
800.42	1433.58
800.60	1460.20
800.78	1433.58
800.95	1458.15
801.13	1460.20
801.30	1398.76
801.48	1423.34
801.66	1474.54
801.83	1464.30
802.01	1443.82
802.19	1279.98
802.36	1341.42
802.54	1423.34
802.72	1480.68
802.89	1540.07
803.07	1406.95
803.24	1488.87
803.42	1435.63
803.60	1390.57
803.77	1482.73
803.95	1402.86
804.12	1411.05
804.30	1447.91
804.48	1390.57
804.65	1464.30
804.83	1474.54
805.01	1458.15
805.18	1435.63
805.36	1427.43
805.53	1366.00
805.71	1409.00
805.88	1425.39
806.06	1441.77
806.24	1433.58
806.41	1415.15
806.59	1423.34
806.76	1431.53
806.94	1390.57
807.12	1380.33
807.29	1394.67
807.47	1374.19
807.64	1480.68
807.82	1482.73
807.99	1415.15
808.17	1409.00
808.35	1384.43
808.52	1466.35
808.70	1423.34
808.87	1337.32
809.05	1421.29
809.22	1482.73
809.40	1345.52
809.58	1409.00
809.75	1361.90
809.93	1398.76
810.10	1466.35
810.28	1351.66
810.45	1378.28
810.63	1546.22
810.80	1333.23
810.98	1468.39
811.15	1456.11
811.33	1456.11
811.51	1361.90
811.68	1341.42
811.86	1366.00
812.03	1392.62
812.21	1406.95
812.38	1431.53
812.56	1447.91
812.73	1464.30
812.91	1540.07
813.08	1474.54
813.26	1484.78
813.43	1538.02
813.61	1505.26
813.78	1554.41
813.96	1509.35
814.13	1480.68
814.31	1466.35
814.48	1374.19
814.66	1431.53
814.83	1415.15
815.01	1466.35
815.18	1570.79
815.36	1427.43
815.53	1425.39
815.71	1476.59
815.88	1466.35
816.06	1482.73
816.23	1409.00
816.41	1357.80
816.58	1431.53
816.76	1640.42
816.93	1447.91
817.11	1480.68
817.28	1449.96
817.46	1488.87
817.63	1497.07
817.81	1458.15
817.98	1415.15
818.16	1296.36
818.33	1361.90
818.51	1505.26
818.68	1374.19
818.86	1423.34
819.03	1447.91
819.21	1411.05
819.38	1366.00
819.55	1492.97
819.73	1476.59
819.90	1357.80
820.08	1439.72
820.25	1478.63
820.43	1415.15
820.60	1441.77
820.78	1447.91
820.95	1456.11
821.12	1492.97
821.30	1386.47
821.47	1431.53
821.65	1466.35
821.82	1447.91
822.00	1423.34
822.17	1419.24
822.35	1488.87
822.52	1464.30
822.69	1466.35
822.87	1497.07
823.04	1425.39
823.22	1423.34
823.39	1470.44
823.56	1529.83
823.74	1441.77
823.91	1382.38
824.09	1411.05
824.26	1406.95
824.44	1390.57
824.61	1546.22
824.78	1480.68
824.96	1456.11
825.13	1425.39
825.31	1447.91
825.48	1435.63
825.65	1521.64
825.83	1480.68
826.00	1341.42
826.18	1390.57
826.35	1439.72
826.52	1456.11
826.70	1392.62
826.87	1439.72
827.04	1427.43
827.22	1349.61
827.39	1472.49
827.57	1497.07
827.74	1458.15
827.91	1423.34
828.09	1415.15
828.26	1378.28
828.43	1366.00
828.61	1447.91
828.78	1394.67
828.96	1499.11
829.13	1456.11
829.30	1456.11
829.48	1449.96
829.65	1452.01
829.82	1439.72
830.00	1499.11
830.17	1382.38
830.34	1447.91
830.52	1398.76
830.69	1456.11
830.86	1501.16
831.04	1447.91
831.21	1423.34
831.38	1447.91
831.56	1409.00
831.73	1398.76
831.90	1390.57
832.08	1419.24
832.25	1456.11
832.42	1421.29
832.60	1480.68
832.77	1398.76
832.94	1398.76
833.12	1292.27
833.29	1382.38
833.46	1404.91
833.64	1476.59
833.81	1447.91
833.98	1521.64
834.16	1423.34
834.33	1497.07
834.50	1538.02
834.67	1404.91
834.85	1466.35
835.02	1406.95
835.19	1488.87
835.37	1449.96
835.54	1374.19
835.71	1480.68
835.89	1374.19
836.06	1513.45
836.23	1382.38
836.40	1447.91
836.58	1509.35
836.75	1478.63
836.92	1368.04
837.10	1382.38
837.27	1343.47
837.44	1392.62
837.61	1458.15
837.79	1400.81
837.96	1384.43
838.13	1349.61
838.30	1464.30
838.48	1447.91
838.65	1400.81
838.82	1431.53
838.99	1441.77
839.17	1464.30
839.34	1417.19
839.51	1398.76
839.69	1382.38
839.86	1443.82
840.03	1400.81
840.20	1382.38
840.37	1501.16
840.55	1480.68
840.72	1474.54
840.89	1462.25
841.06	1499.11
841.24	1443.82
841.41	1402.86
841.58	1523.69
841.75	1497.07
841.93	1546.22
842.10	1402.86
842.27	1464.30
842.44	1433.58
842.62	1433.58
842.79	1540.07
842.96	1468.39
843.13	1435.63
843.30	1456.11
843.48	1439.72
843.65	1443.82
843.82	1505.26
843.99	1433.58
844.16	1409.00
844.34	1447.91
844.51	1447.91
844.68	1521.64
844.85	1427.43
845.02	1415.15
845.20	1366.00
845.37	1423.34
845.54	1472.49
845.71	1423.34
845.88	1529.83
846.06	1466.35
846.23	1439.72
846.40	1521.64
846.57	1439.72
846.74	1368.04
846.91	1515.50
847.09	1452.01
847.26	1447.91
847.43	1554.41
847.60	1492.97
847.77	1447.91
847.94	1431.53
848.12	1456.11
848.29	1406.95
848.46	1390.57
848.63	1464.30
848.80	1449.96
848.97	1421.29
849.15	1546.22
849.32	1370.09
849.49	1421.29
849.66	1439.72
849.83	1466.35
850.00	1464.30
850.17	1411.05
850.35	1505.26
850.52	1480.68
850.69	1394.67
850.86	1409.00
851.03	1402.86
851.20	1456.11
851.37	1472.49
851.55	1415.15
851.72	1464.30
851.89	1505.26
852.06	1447.91
852.23	1456.11
852.40	1458.15
852.57	1474.54
852.74	1415.15
852.92	1425.39
853.09	1406.95
853.26	1439.72
853.43	1449.96
853.60	1490.92
853.77	1435.63
853.94	1417.19
854.11	1443.82
854.28	1812.45
854.45	1488.87
854.63	1415.15
854.80	1374.19
854.97	1464.30
855.14	1443.82
855.31	1542.12
855.48	1406.95
855.65	1398.76
855.82	1427.43
855.99	1464.30
856.16	1398.76
856.33	1548.26
856.50	1406.95
856.68	1488.87
856.85	1554.41
857.02	1370.09
857.19	1394.67
857.36	1435.63
857.53	1419.24
857.70	1382.38
857.87	1406.95
858.04	1400.81
858.21	1456.11
858.38	1400.81
858.55	1447.91
858.72	1488.87
858.89	1464.30
859.06	1521.64
859.23	1476.59
859.40	1548.26
859.58	1376.24
859.75	1341.42
859.92	1482.73
860.09	1513.45
860.26	1476.59
860.43	1464.30
860.60	1415.15
860.77	1349.61
860.94	1447.91
861.11	1472.49
861.28	1497.07
861.45	1505.26
861.62	1431.53
861.79	1488.87
861.96	1292.27
862.13	1415.15
862.30	1409.00
862.47	1341.42
862.64	1513.45
862.81	1349.61
862.98	1384.43
863.15	1472.49
863.32	1523.69
863.49	1521.64
863.66	1423.34
863.83	1431.53
864.00	1398.76
864.17	1474.54
864.34	1441.77
864.51	1406.95
864.68	1337.32
864.85	1419.24
865.02	1402.86
865.19	1415.15
865.36	1411.05
865.53	1538.02
865.70	1488.87
865.87	1466.35
866.04	1464.30
866.21	1357.80
866.38	1480.68
866.55	1368.04
866.72	1443.82
866.89	1472.49
867.06	1511.40
867.23	1427.43
867.40	1400.81
867.57	1464.30
867.73	1429.48
867.90	1480.68
868.07	1497.07
868.24	1398.76
868.41	1472.49
868.58	1540.07
868.75	1472.49
868.92	1515.50
869.09	1443.82
869.26	1435.63
869.43	1492.97
869.60	1439.72
869.77	1361.90
869.94	1480.68
870.11	1499.11
870.28	1366.00
870.45	1431.53
870.61	1456.11
870.78	1441.77
870.95	1456.11
871.12	1476.59
871.29	1562.60
871.46	1509.35
871.63	1476.59
871.80	1411.05
871.97	1447.91
872.14	1560.55
872.31	1449.96
872.47	1386.47
872.64	1449.96
872.81	1304.56
872.98	1411.05
873.15	1431.53
873.32	1402.86
873.49	1480.68
873.66	1490.92
873.83	1417.19
874.00	1488.87
874.16	1439.72
874.33	1402.86
874.50	1325.04
874.67	1480.68
874.84	1406.95
875.01	1382.38
875.18	1484.78
875.35	1357.80
875.51	1505.26
875.68	1480.68
875.85	1390.57
876.02	1409.00
876.19	1486.83
876.36	1466.35
876.53	1472.49
876.69	1490.92
876.86	1447.91
877.03	1425.39
877.20	1509.35
877.37	1505.26
877.54	1431.53
877.71	1513.45
877.87	1521.64
878.04	1562.60
878.21	1374.19
878.38	1456.11
878.55	1505.26
878.72	1392.62
878.88	1390.57
879.05	1488.87
879.22	1472.49
879.39	1447.91
879.56	1415.15
879.73	1406.95
879.89	1464.30
880.06	1546.22
880.23	1400.81
880.40	1439.72
880.57	1458.15
880.74	1480.68
880.90	1396.71
881.07	1425.39
881.24	1466.35
881.41	1431.53
881.58	1505.26
881.74	1480.68
881.91	1366.00
882.08	1441.77
882.25	1480.68
882.42	1349.61
882.58	1646.57
882.75	1492.97
882.92	1472.49
883.09	1488.87
883.26	1439.72
883.42	1540.07
883.59	1513.45
883.76	1359.85
883.93	1452.01
884.09	1454.06
884.26	1566.70
884.43	1482.73
884.60	1456.11
884.77	1570.79
884.93	1501.16
885.10	1431.53
885.27	1513.45
885.44	1497.07
885.60	1546.22
885.77	1505.26
885.94	1452.01
886.11	1499.11
886.27	1427.43
886.44	1464.30
886.61	1568.74
886.78	1456.11
886.94	1464.30
887.11	1499.11
887.28	1480.68
887.45	1390.57
887.61	1419.24
887.78	1433.58
887.95	1390.57
888.12	1472.49
888.28	1456.11
888.45	1423.34
888.62	1464.30
888.78	1382.38
888.95	1525.74
889.12	1447.91
889.29	1439.72
889.45	1529.83
889.62	1531.88
889.79	1495.02
889.95	1417.19
890.12	1464.30
890.29	1523.69
890.46	1464.30
890.62	1458.15
