Comprimento	Intensity
178.13	1298.41
178.35	1298.41
178.57	1298.41
178.78	1300.46
179.00	1320.94
179.22	1456.11
179.44	1521.64
179.66	1456.11
179.87	1538.02
180.09	1546.22
180.31	1630.18
180.53	1538.02
180.75	1433.58
180.96	1439.72
181.18	1402.86
181.40	1447.91
181.62	1488.87
181.84	1472.49
182.05	1431.53
182.27	1480.68
182.49	1472.49
182.71	1427.43
182.92	1605.61
183.14	1435.63
183.36	1546.22
183.58	1439.72
183.80	1630.18
184.01	1452.01
184.23	1505.26
184.45	1570.79
184.67	1529.83
184.89	1488.87
185.10	1538.02
185.32	1525.74
185.54	1513.45
185.76	1538.02
185.97	1513.45
186.19	1521.64
186.41	1554.41
186.63	1505.26
186.84	1431.53
187.06	1529.83
187.28	1660.90
187.50	1478.63
187.72	1564.65
187.93	1581.03
188.15	1464.30
188.37	1474.54
188.59	1476.59
188.80	1542.12
189.02	1513.45
189.24	1531.88
189.46	1523.69
189.67	1562.60
189.89	1480.68
190.11	1507.30
190.33	1619.94
190.54	1607.66
190.76	1521.64
190.98	1456.11
191.20	1472.49
191.41	1484.78
191.63	1538.02
191.85	1460.20
192.07	1515.50
192.28	1511.40
192.50	1538.02
192.72	1521.64
192.94	1574.89
193.15	1488.87
193.37	1597.42
193.59	1632.23
193.81	1558.50
194.02	1499.11
194.24	1472.49
194.46	1497.07
194.67	1521.64
194.89	1376.24
195.11	1558.50
195.33	1556.46
195.54	1603.56
195.76	1482.73
195.98	1472.49
196.20	1513.45
196.41	1460.20
196.63	1521.64
196.85	1564.65
197.06	1427.43
197.28	1505.26
197.50	1378.28
197.72	1452.01
197.93	1456.11
198.15	1538.02
198.37	1464.30
198.58	1513.45
198.80	1548.26
199.02	1529.83
199.24	1523.69
199.45	1515.50
199.67	1454.06
199.89	1515.50
200.10	1419.24
200.32	1458.15
200.54	1390.57
200.76	1449.96
200.97	1521.64
201.19	1460.20
201.41	1472.49
201.62	1505.26
201.84	1472.49
202.06	1497.07
202.28	1521.64
202.49	1558.50
202.71	1544.17
202.93	1556.46
203.14	1449.96
203.36	1507.30
203.58	1398.76
203.79	1474.54
204.01	1505.26
204.23	1505.26
204.44	1585.13
204.66	1499.11
204.88	1558.50
205.10	1452.01
205.31	1499.11
205.53	1427.43
205.75	1568.74
205.96	1499.11
206.18	1482.73
206.40	1439.72
206.61	1386.47
206.83	1456.11
207.05	1417.19
207.26	1513.45
207.48	1480.68
207.70	1529.83
207.91	1497.07
208.13	1392.62
208.35	1456.11
208.56	1447.91
208.78	1497.07
209.00	1538.02
209.21	1533.93
209.43	1513.45
209.65	1525.74
209.86	1517.54
210.08	1583.08
210.30	1513.45
210.51	1581.03
210.73	1441.77
210.95	1480.68
211.16	1443.82
211.38	1497.07
211.60	1525.74
211.81	1531.88
212.03	1546.22
212.25	1529.83
212.46	1480.68
212.68	1619.94
212.90	1538.02
213.11	1556.46
213.33	1513.45
213.55	1554.41
213.76	1523.69
213.98	1497.07
214.20	1464.30
214.41	1497.07
214.63	1572.84
214.84	1538.02
215.06	1529.83
215.28	1574.89
215.49	1531.88
215.71	1542.12
215.93	1669.09
216.14	1400.81
216.36	1546.22
216.58	1513.45
216.79	1538.02
217.01	1546.22
217.22	1492.97
217.44	1632.23
217.66	1529.83
217.87	1583.08
218.09	1390.57
218.31	1439.72
218.52	1546.22
218.74	1423.34
218.95	1505.26
219.17	1425.39
219.39	1497.07
219.60	1570.79
219.82	1505.26
220.04	1476.59
220.25	1497.07
220.47	1464.30
220.68	1581.03
220.90	1583.08
221.12	1513.45
221.33	1447.91
221.55	1538.02
221.77	1554.41
221.98	1523.69
222.20	1458.15
222.41	1546.22
222.63	1523.69
222.85	1490.92
223.06	1513.45
223.28	1497.07
223.49	1542.12
223.71	1529.83
223.93	1548.26
224.14	1497.07
224.36	1611.75
224.57	1460.20
224.79	1529.83
225.01	1482.73
225.22	1476.59
225.44	1417.19
225.65	1578.98
225.87	1554.41
226.09	1529.83
226.30	1572.84
226.52	1519.59
226.73	1456.11
226.95	1638.38
227.17	1488.87
227.38	1470.44
227.60	1540.07
227.81	1431.53
228.03	1513.45
228.24	1554.41
228.46	1542.12
228.68	1402.86
228.89	1556.46
229.11	1462.25
229.32	1554.41
229.54	1431.53
229.75	1540.07
229.97	1521.64
230.19	1538.02
230.40	1456.11
230.62	1484.78
230.83	1583.08
231.05	1562.60
231.26	1464.30
231.48	1538.02
231.70	1517.54
231.91	1439.72
232.13	1538.02
232.34	1525.74
232.56	1466.35
232.77	1538.02
232.99	1488.87
233.21	1753.06
233.42	1456.11
233.64	1525.74
233.85	1390.57
234.07	1447.91
234.28	1550.31
234.50	1490.92
234.71	1458.15
234.93	1603.56
235.15	1456.11
235.36	1497.07
235.58	1597.42
235.79	1425.39
236.01	1538.02
236.22	1499.11
236.44	1609.70
236.65	1521.64
236.87	1597.42
237.08	1466.35
237.30	1550.31
237.52	1531.88
237.73	1398.76
237.95	1490.92
238.16	1447.91
238.38	1566.70
238.59	1505.26
238.81	1556.46
239.02	1505.26
239.24	1591.27
239.45	1497.07
239.67	1480.68
239.88	1546.22
240.10	1587.18
240.31	1490.92
240.53	1447.91
240.74	1464.30
240.96	1488.87
241.18	1472.49
241.39	1464.30
241.61	1554.41
241.82	1447.91
242.04	1472.49
242.25	1507.30
242.47	1423.34
242.68	1505.26
242.90	1509.35
243.11	1417.19
243.33	1490.92
243.54	1630.18
243.76	1452.01
243.97	1562.60
244.19	1521.64
244.40	1497.07
244.62	1497.07
244.83	1488.87
245.05	1507.30
245.26	1419.24
245.48	1492.97
245.69	1562.60
245.91	1472.49
246.12	1423.34
246.34	1546.22
246.55	1570.79
246.77	1390.57
246.98	1488.87
247.20	1497.07
247.41	1464.30
247.63	1546.22
247.84	1488.87
248.06	1605.61
248.27	1456.11
248.49	1509.35
248.70	1546.22
248.92	1382.38
249.13	1464.30
249.35	1359.85
249.56	1531.88
249.78	1417.19
249.99	1458.15
250.21	1570.79
250.42	1439.72
250.64	1464.30
250.85	1529.83
251.06	1619.94
251.28	1513.45
251.49	1460.20
251.71	1529.83
251.92	1464.30
252.14	1488.87
252.35	1464.30
252.57	1492.97
252.78	1578.98
253.00	1415.15
253.21	1515.50
253.43	1490.92
253.64	1572.84
253.86	1484.78
254.07	1468.39
254.28	1423.34
254.50	1521.64
254.71	1441.77
254.93	1441.77
255.14	1488.87
255.36	1521.64
255.57	1497.07
255.79	1466.35
256.00	1517.54
256.22	1513.45
256.43	1546.22
256.64	1636.33
256.86	1607.66
257.07	1480.68
257.29	1458.15
257.50	1411.05
257.72	1550.31
257.93	1521.64
258.15	1570.79
258.36	1396.71
258.57	1490.92
258.79	1533.93
259.00	1480.68
259.22	1480.68
259.43	1415.15
259.65	1550.31
259.86	1472.49
260.08	1398.76
260.29	1671.14
260.50	1468.39
260.72	1857.51
260.93	1449.96
261.15	1507.30
261.36	1472.49
261.58	1464.30
261.79	1482.73
262.00	1558.50
262.22	1636.33
262.43	1562.60
262.65	1490.92
262.86	1546.22
263.07	1546.22
263.29	1562.60
263.50	1497.07
263.72	1542.12
263.93	1517.54
264.15	1480.68
264.36	1417.19
264.57	1433.58
264.79	1619.94
265.00	1443.82
265.22	1464.30
265.43	1546.22
265.64	1472.49
265.86	1390.57
266.07	1476.59
266.29	1460.20
266.50	1419.24
266.71	1597.42
266.93	1474.54
267.14	1517.54
267.36	1538.02
267.57	1472.49
267.78	1480.68
268.00	1566.70
268.21	1570.79
268.43	1513.45
268.64	1474.54
268.85	1456.11
269.07	1497.07
269.28	1550.31
269.50	1431.53
269.71	1449.96
269.92	1482.73
270.14	1603.56
270.35	1439.72
270.56	1538.02
270.78	1488.87
270.99	1548.26
271.21	1554.41
271.42	1476.59
271.63	1521.64
271.85	1505.26
272.06	1505.26
272.27	1507.30
272.49	1523.69
272.70	1538.02
272.92	1501.16
273.13	1492.97
273.34	1564.65
273.56	1423.34
273.77	1615.85
273.98	1546.22
274.20	1550.31
274.41	1447.91
274.63	1509.35
274.84	1409.00
275.05	1490.92
275.27	1480.68
275.48	1578.98
275.69	1546.22
275.91	1488.87
276.12	1540.07
276.33	1562.60
276.55	1464.30
276.76	1480.68
276.97	1605.61
277.19	1523.69
277.40	1419.24
277.61	1472.49
277.83	1546.22
278.04	1441.77
278.26	1531.88
278.47	1558.50
278.68	1574.89
278.90	1513.45
279.11	1456.11
279.32	1531.88
279.54	1570.79
279.75	1523.69
279.96	1513.45
280.18	1570.79
280.39	1619.94
280.60	1550.31
280.82	1603.56
281.03	1433.58
281.24	1660.90
281.46	1578.98
281.67	1507.30
281.88	1497.07
282.10	1497.07
282.31	1488.87
282.52	1476.59
282.74	1447.91
282.95	1521.64
283.16	1554.41
283.37	1521.64
283.59	1449.96
283.80	1507.30
284.01	1578.98
284.23	1406.95
284.44	1636.33
284.65	1689.57
284.87	1423.34
285.08	1460.20
285.29	1531.88
285.51	1581.03
285.72	1488.87
285.93	1578.98
286.15	1581.03
286.36	1497.07
286.57	1523.69
286.78	1497.07
287.00	1497.07
287.21	1497.07
287.42	1443.82
287.64	1488.87
287.85	1538.02
288.06	1497.07
288.28	1505.26
288.49	1488.87
288.70	1513.45
288.91	1476.59
289.13	1595.37
289.34	1570.79
289.55	1423.34
289.77	1447.91
289.98	1521.64
290.19	1548.26
290.40	1439.72
290.62	1499.11
290.83	1431.53
291.04	1464.30
291.26	1417.19
291.47	1531.88
291.68	1482.73
291.89	1480.68
292.11	1595.37
292.32	1570.79
292.53	1619.94
292.74	1554.41
292.96	1439.72
293.17	1581.03
293.38	1546.22
293.60	1542.12
293.81	1505.26
294.02	1333.23
294.23	1419.24
294.45	1525.74
294.66	1554.41
294.87	1521.64
295.08	1398.76
295.30	1556.46
295.51	1513.45
295.72	1636.33
295.93	1511.40
296.15	1546.22
296.36	1482.73
296.57	1529.83
296.78	1523.69
297.00	1474.54
297.21	1464.30
297.42	1570.79
297.63	1497.07
297.85	1562.60
298.06	1552.36
298.27	1439.72
298.48	1529.83
298.70	1546.22
298.91	1701.86
299.12	1464.30
299.33	1509.35
299.55	1466.35
299.76	1439.72
299.97	1497.07
300.18	1425.39
300.40	1417.19
300.61	1464.30
300.82	1443.82
301.03	1470.44
301.24	1425.39
301.46	1472.49
301.67	1488.87
301.88	1513.45
302.09	1460.20
302.31	1447.91
302.52	1505.26
302.73	1570.79
302.94	1464.30
303.15	1482.73
303.37	1488.87
303.58	1431.53
303.79	1562.60
304.00	1505.26
304.22	1523.69
304.43	1636.33
304.64	1570.79
304.85	1447.91
305.06	1589.22
305.28	1554.41
305.49	1595.37
305.70	1490.92
305.91	1406.95
306.12	1554.41
306.34	1574.89
306.55	1495.02
306.76	1513.45
306.97	1669.09
307.18	1476.59
307.40	1472.49
307.61	1482.73
307.82	1533.93
308.03	1538.02
308.24	1482.73
308.46	1488.87
308.67	1488.87
308.88	1497.07
309.09	1570.79
309.30	1546.22
309.52	1507.30
309.73	1538.02
309.94	1406.95
310.15	1425.39
310.36	1501.16
310.57	1505.26
310.79	1497.07
311.00	1562.60
311.21	1382.38
311.42	1513.45
311.63	1546.22
311.85	1468.39
312.06	1492.97
312.27	1507.30
312.48	1540.07
312.69	1398.76
312.90	1591.27
313.12	1523.69
313.33	1499.11
313.54	1554.41
313.75	1406.95
313.96	1556.46
314.17	1488.87
314.39	1501.16
314.60	1525.74
314.81	1497.07
315.02	1357.80
315.23	1439.72
315.44	1509.35
315.65	1583.08
315.87	1505.26
316.08	1540.07
316.29	1425.39
316.50	1497.07
316.71	1525.74
316.92	1431.53
317.14	1488.87
317.35	1480.68
317.56	1458.15
317.77	1644.52
317.98	1492.97
318.19	1538.02
318.40	1509.35
318.62	1546.22
318.83	1583.08
319.04	1484.78
319.25	1509.35
319.46	1566.70
319.67	1542.12
319.88	1570.79
320.09	1540.07
320.31	1497.07
320.52	1507.30
320.73	1607.66
320.94	1513.45
321.15	1431.53
321.36	1464.30
321.57	1603.56
321.78	1513.45
322.00	1529.83
322.21	1513.45
322.42	1464.30
322.63	1554.41
322.84	1472.49
323.05	1513.45
323.26	1417.19
323.47	1583.08
323.69	1452.01
323.90	1497.07
324.11	1484.78
324.32	1484.78
324.53	1425.39
324.74	1488.87
324.95	1570.79
325.16	1466.35
325.37	1492.97
325.59	1560.55
325.80	1490.92
326.01	1449.96
326.22	1581.03
326.43	1517.54
326.64	1583.08
326.85	1554.41
327.06	1425.39
327.27	1515.50
327.48	1644.52
327.69	1505.26
327.91	1443.82
328.12	1460.20
328.33	1460.20
328.54	1398.76
328.75	1560.55
328.96	1505.26
329.17	1497.07
329.38	1497.07
329.59	1441.77
329.80	1875.94
330.01	1603.56
330.23	1546.22
330.44	1521.64
330.65	1449.96
330.86	1464.30
331.07	1523.69
331.28	1546.22
331.49	1480.68
331.70	1497.07
331.91	1417.19
332.12	1554.41
332.33	1529.83
332.54	1615.85
332.75	1562.60
332.96	1464.30
333.17	1525.74
333.39	1556.46
333.60	1474.54
333.81	1488.87
334.02	1488.87
334.23	1554.41
334.44	1423.34
334.65	1464.30
334.86	1570.79
335.07	1538.02
335.28	1431.53
335.49	1572.84
335.70	1472.49
335.91	1499.11
336.12	1548.26
336.33	1546.22
336.54	1513.45
336.75	1464.30
336.96	1540.07
337.17	1550.31
337.39	1497.07
337.60	1542.12
337.81	1603.56
338.02	1542.12
338.23	1480.68
338.44	1423.34
338.65	1480.68
338.86	1435.63
339.07	1476.59
339.28	1521.64
339.49	1603.56
339.70	1538.02
339.91	1529.83
340.12	1529.83
340.33	1447.91
340.54	1476.59
340.75	1439.72
340.96	1488.87
341.17	1488.87
341.38	1425.39
341.59	1546.22
341.80	1677.29
342.01	1505.26
342.22	1413.10
342.43	1505.26
342.64	1517.54
342.85	1513.45
343.06	1507.30
343.27	1529.83
343.48	1605.61
343.69	1542.12
343.90	1458.15
344.11	1490.92
344.32	1447.91
344.53	1458.15
344.74	1554.41
344.95	1460.20
345.16	1472.49
345.37	1390.57
345.58	1521.64
345.79	1435.63
346.00	1523.69
346.21	1472.49
346.42	1490.92
346.63	1505.26
346.84	1548.26
347.05	1501.16
347.26	1458.15
347.47	1460.20
347.68	1538.02
347.89	1488.87
348.10	1492.97
348.31	1441.77
348.52	1447.91
348.73	1497.07
348.94	1509.35
349.15	1538.02
349.36	1482.73
349.57	1425.39
349.78	1533.93
349.99	1480.68
350.20	1578.98
350.41	1480.68
350.62	1366.00
350.83	1546.22
351.04	1409.00
351.25	1499.11
351.46	1466.35
351.67	1423.34
351.88	1464.30
352.09	1497.07
352.30	1554.41
352.50	1538.02
352.71	1415.15
352.92	1468.39
353.13	1474.54
353.34	1415.15
353.55	1562.60
353.76	1488.87
353.97	1521.64
354.18	1562.60
354.39	1415.15
354.60	1619.94
354.81	1562.60
355.02	1556.46
355.23	1505.26
355.44	1513.45
355.65	1441.77
355.86	1488.87
356.07	1474.54
356.28	1540.07
356.48	1468.39
356.69	1480.68
356.90	1431.53
357.11	1484.78
357.32	1497.07
357.53	1556.46
357.74	1529.83
357.95	1509.35
358.16	1464.30
358.37	1419.24
358.58	1447.91
358.79	1445.87
359.00	1554.41
359.21	1480.68
359.41	1540.07
359.62	1566.70
359.83	1484.78
360.04	1492.97
360.25	1562.60
360.46	1531.88
360.67	1402.86
360.88	1474.54
361.09	1550.31
361.30	1521.64
361.51	1482.73
361.72	1456.11
361.92	1603.56
362.13	1415.15
362.34	1482.73
362.55	1472.49
362.76	1439.72
362.97	1513.45
363.18	1480.68
363.39	1476.59
363.60	1523.69
363.81	1464.30
364.01	1550.31
364.22	1535.98
364.43	1472.49
364.64	1458.15
364.85	1562.60
365.06	1466.35
365.27	1488.87
365.48	1513.45
365.69	1480.68
365.89	1447.91
366.10	1431.53
366.31	1488.87
366.52	1447.91
366.73	1523.69
366.94	1652.71
367.15	1466.35
367.36	1480.68
367.57	1599.46
367.77	1562.60
367.98	1505.26
368.19	1513.45
368.40	1531.88
368.61	1525.74
368.82	1468.39
369.03	1499.11
369.23	1636.33
369.44	1392.62
369.65	1474.54
369.86	1480.68
370.07	1515.50
370.28	1554.41
370.49	1482.73
370.70	1546.22
370.90	1529.83
371.11	1509.35
371.32	1458.15
371.53	1482.73
371.74	1368.04
371.95	1560.55
372.16	1439.72
372.36	1497.07
372.57	1538.02
372.78	1492.97
372.99	1433.58
373.20	1472.49
373.41	1374.19
373.61	1509.35
373.82	1523.69
374.03	1497.07
374.24	1546.22
374.45	1566.70
374.66	1562.60
374.86	1603.56
375.07	1439.72
375.28	1621.99
375.49	1431.53
375.70	1546.22
375.91	1538.02
376.11	1439.72
376.32	1513.45
376.53	1540.07
376.74	1570.79
376.95	1988.58
377.16	1619.94
377.36	1521.64
377.57	1556.46
377.78	1464.30
377.99	1558.50
378.20	1513.45
378.40	1538.02
378.61	1517.54
378.82	1468.39
379.03	1570.79
379.24	1632.23
379.45	1394.67
379.65	1474.54
379.86	1492.97
380.07	1409.00
380.28	1525.74
380.49	1513.45
380.69	1570.79
380.90	1681.38
381.11	1466.35
381.32	1554.41
381.53	1595.37
381.73	1507.30
381.94	1505.26
382.15	1439.72
382.36	1540.07
382.57	1554.41
382.77	1484.78
382.98	1435.63
383.19	1488.87
383.40	1538.02
383.60	1492.97
383.81	1484.78
384.02	1587.18
384.23	1464.30
384.44	1464.30
384.64	1529.83
384.85	1531.88
385.06	1456.11
385.27	1488.87
385.48	1529.83
385.68	1488.87
385.89	1464.30
386.10	1521.64
386.31	1488.87
386.51	1538.02
386.72	1464.30
386.93	1521.64
387.14	1505.26
387.34	1439.72
387.55	1431.53
387.76	1482.73
387.97	1458.15
388.17	1538.02
388.38	1550.31
388.59	1529.83
388.80	1449.96
389.01	1482.73
389.21	1472.49
389.42	1562.60
389.63	1507.30
389.84	1431.53
390.04	1517.54
390.25	1449.96
390.46	1542.12
390.67	1497.07
390.87	1488.87
391.08	1507.30
391.29	1546.22
391.49	1597.42
391.70	1415.15
391.91	1562.60
392.12	1556.46
392.32	1505.26
392.53	1546.22
392.74	1406.95
392.95	1392.62
393.15	1519.59
393.36	1507.30
393.57	1509.35
393.78	1476.59
393.98	1595.37
394.19	1542.12
394.40	1624.04
394.60	1495.02
394.81	1415.15
395.02	1447.91
395.23	1499.11
395.43	1562.60
395.64	1583.08
395.85	1452.01
396.06	1497.07
396.26	1540.07
396.47	1400.81
396.68	1394.67
396.88	1566.70
397.09	1400.81
397.30	1538.02
397.50	1554.41
397.71	1554.41
397.92	1589.22
398.13	1529.83
398.33	1382.38
398.54	1542.12
398.75	1482.73
398.95	1538.02
399.16	1587.18
399.37	1468.39
399.57	1546.22
399.78	1525.74
399.99	1513.45
400.20	1595.37
400.40	1466.35
400.61	1439.72
400.82	1406.95
401.02	1529.83
401.23	1566.70
401.44	1427.43
401.64	1521.64
401.85	1474.54
402.06	1542.12
402.26	1538.02
402.47	1431.53
402.68	1646.57
402.88	1456.11
403.09	1578.98
403.30	1554.41
403.50	1449.96
403.71	1574.89
403.92	1525.74
404.12	1458.15
404.33	1499.11
404.54	1497.07
404.74	1513.45
404.95	1556.46
405.16	1488.87
405.36	1578.98
405.57	1462.25
405.78	1562.60
405.98	1482.73
406.19	1415.15
406.40	1488.87
406.60	1546.22
406.81	1335.28
407.02	1513.45
407.22	1464.30
407.43	1431.53
407.64	1464.30
407.84	1443.82
408.05	1497.07
408.26	1456.11
408.46	1538.02
408.67	1589.22
408.87	1503.21
409.08	1474.54
409.29	1611.75
409.49	1406.95
409.70	1624.04
409.91	1562.60
410.11	1472.49
410.32	1488.87
410.53	1447.91
410.73	1507.30
410.94	1472.49
411.14	1456.11
411.35	1587.18
411.56	1447.91
411.76	1630.18
411.97	1464.30
412.18	1515.50
412.38	1515.50
412.59	1435.63
412.79	1449.96
413.00	1546.22
413.21	1480.68
413.41	1523.69
413.62	1466.35
413.82	1554.41
414.03	1542.12
414.24	1544.17
414.44	1472.49
414.65	1460.20
414.86	1533.93
415.06	1597.42
415.27	1476.59
415.47	1505.26
415.68	1546.22
415.89	1492.97
416.09	1456.11
416.30	1480.68
416.50	1529.83
416.71	1566.70
416.92	1439.72
417.12	1452.01
417.33	1456.11
417.53	1357.80
417.74	1437.67
417.94	1480.68
418.15	1513.45
418.36	1439.72
418.56	1460.20
418.77	1546.22
418.97	1531.88
419.18	1513.45
419.39	1431.53
419.59	1529.83
419.80	1482.73
420.00	1505.26
420.21	1398.76
420.41	1460.20
420.62	1509.35
420.83	1531.88
421.03	1456.11
421.24	1464.30
421.44	1521.64
421.65	1538.02
421.85	1533.93
422.06	1415.15
422.27	1578.98
422.47	1529.83
422.68	1515.50
422.88	1597.42
423.09	1460.20
423.29	1554.41
423.50	1472.49
423.70	1531.88
423.91	1484.78
424.12	1441.77
424.32	1474.54
424.53	1447.91
424.73	1624.04
424.94	1513.45
425.14	1476.59
425.35	1570.79
425.55	1550.31
425.76	1574.89
425.96	1513.45
426.17	1490.92
426.37	1515.50
426.58	1531.88
426.79	1519.59
426.99	1540.07
427.20	1538.02
427.40	1531.88
427.61	1464.30
427.81	1554.41
428.02	1480.68
428.22	1501.16
428.43	1441.77
428.63	1433.58
428.84	1480.68
429.04	1406.95
429.25	1589.22
429.45	1562.60
429.66	1499.11
429.86	1482.73
430.07	1499.11
430.27	1468.39
430.48	1570.79
430.68	1480.68
430.89	1558.50
431.09	1472.49
431.30	1472.49
431.50	1597.42
431.71	1607.66
431.91	1507.30
432.12	1411.05
432.32	1562.60
432.53	1466.35
432.73	1515.50
432.94	1466.35
433.14	1482.73
433.35	1472.49
433.55	1523.69
433.76	1398.76
433.96	1505.26
434.17	1501.16
434.37	1488.87
434.58	1523.69
434.78	1558.50
434.99	1464.30
435.19	1447.91
435.40	1505.26
435.60	1472.49
435.81	1570.79
436.01	1472.49
436.22	1538.02
436.42	1564.65
436.63	1576.94
436.83	1402.86
437.04	1603.56
437.24	1443.82
437.45	1464.30
437.65	1480.68
437.86	1513.45
438.06	1513.45
438.26	1488.87
438.47	1482.73
438.67	1423.34
438.88	1466.35
439.08	1505.26
439.29	1538.02
439.49	1505.26
439.70	1497.07
439.90	1431.53
440.11	1546.22
440.31	1554.41
440.52	1482.73
440.72	1540.07
440.92	1480.68
441.13	1452.01
441.33	1488.87
441.54	1497.07
441.74	1499.11
441.95	1513.45
442.15	1591.27
442.36	1556.46
442.56	1554.41
442.76	1415.15
442.97	1402.86
443.17	1398.76
443.38	1550.31
443.58	1468.39
443.79	1439.72
443.99	1505.26
444.19	1509.35
444.40	1472.49
444.60	1499.11
444.81	1439.72
445.01	1562.60
445.22	1417.19
445.42	1505.26
445.62	1593.32
445.83	1464.30
446.03	1531.88
446.24	1531.88
446.44	1566.70
446.64	1472.49
446.85	1499.11
447.05	1570.79
447.26	1472.49
447.46	1505.26
447.67	1468.39
447.87	1476.59
448.07	1550.31
448.28	1482.73
448.48	1578.98
448.69	1472.49
448.89	1480.68
449.09	1456.11
449.30	1439.72
449.50	1431.53
449.71	1441.77
449.91	1482.73
450.11	1505.26
450.32	1439.72
450.52	1433.58
450.72	1449.96
450.93	1521.64
451.13	1542.12
451.34	1482.73
451.54	1497.07
451.74	1517.54
451.95	1523.69
452.15	1456.11
452.36	1521.64
452.56	1513.45
452.76	1505.26
452.97	1449.96
453.17	1515.50
453.37	1439.72
453.58	1466.35
453.78	1499.11
453.98	1538.02
454.19	1509.35
454.39	1464.30
454.60	1513.45
454.80	1581.03
455.00	1615.85
455.21	1472.49
455.41	1501.16
455.61	1501.16
455.82	1509.35
456.02	1406.95
456.22	1499.11
456.43	1484.78
456.63	1599.46
456.84	1497.07
457.04	1513.45
457.24	1449.96
457.45	1497.07
457.65	1515.50
457.85	1513.45
458.06	1464.30
458.26	1466.35
458.46	1482.73
458.67	1546.22
458.87	1619.94
459.07	1513.45
459.28	1546.22
459.48	1468.39
459.68	1521.64
459.89	1458.15
460.09	1452.01
460.29	1562.60
460.50	1460.20
460.70	1480.68
460.90	1499.11
461.11	1474.54
461.31	1509.35
461.51	1597.42
461.72	1554.41
461.92	1480.68
462.12	1546.22
462.32	1525.74
462.53	1591.27
462.73	2000.87
462.93	1447.91
463.14	1578.98
463.34	1499.11
463.54	1517.54
463.75	1538.02
463.95	1409.00
464.15	1669.09
464.36	1468.39
464.56	1554.41
464.76	1439.72
464.96	1578.98
465.17	1443.82
465.37	1488.87
465.57	1460.20
465.78	1558.50
465.98	1507.30
466.18	1458.15
466.39	1472.49
466.59	1538.02
466.79	1456.11
466.99	1474.54
467.20	1488.87
467.40	1513.45
467.60	1456.11
467.81	1409.00
468.01	1562.60
468.21	1482.73
468.41	1513.45
468.62	1619.94
468.82	1447.91
469.02	1505.26
469.22	1476.59
469.43	1458.15
469.63	1484.78
469.83	1499.11
470.04	1550.31
470.24	1548.26
470.44	1513.45
470.64	1542.12
470.85	1458.15
471.05	1431.53
471.25	1546.22
471.45	1472.49
471.66	1572.84
471.86	1464.30
472.06	1464.30
472.26	1589.22
472.47	1488.87
472.67	1499.11
472.87	1521.64
473.07	1472.49
473.28	1449.96
473.48	1538.02
473.68	1562.60
473.88	1521.64
474.09	1595.37
474.29	1521.64
474.49	1589.22
474.69	1472.49
474.90	1458.15
475.10	1564.65
475.30	1603.56
475.50	1449.96
475.70	1423.34
475.91	1513.45
476.11	1472.49
476.31	1609.70
476.51	1515.50
476.72	1570.79
476.92	1474.54
477.12	1505.26
477.32	1464.30
477.53	1472.49
477.73	1513.45
477.93	1474.54
478.13	1501.16
478.33	1521.64
478.54	1523.69
478.74	1533.93
478.94	1591.27
479.14	1523.69
479.34	1611.75
479.55	1499.11
479.75	1583.08
479.95	1529.83
480.15	1538.02
480.35	1546.22
480.56	1546.22
480.76	1595.37
480.96	1523.69
481.16	1529.83
481.36	1531.88
481.57	1447.91
481.77	1488.87
481.97	1531.88
482.17	1513.45
482.37	1533.93
482.58	1447.91
482.78	1540.07
482.98	1544.17
483.18	1515.50
483.38	1529.83
483.58	1628.14
483.79	1619.94
483.99	1595.37
484.19	1488.87
484.39	1480.68
484.59	1497.07
484.80	1538.02
485.00	1480.68
485.20	1554.41
485.40	1611.75
485.60	1662.95
485.80	1511.40
486.01	1554.41
486.21	1570.79
486.41	1660.90
486.61	1654.76
486.81	1572.84
487.01	1447.91
487.22	1611.75
487.42	1546.22
487.62	1554.41
487.82	1509.35
488.02	1583.08
488.22	1570.79
488.42	1662.95
488.63	1685.48
488.83	1603.56
489.03	1513.45
489.23	1638.38
489.43	1578.98
489.63	1720.29
489.83	1538.02
490.04	1669.09
490.24	1583.08
490.44	1581.03
490.64	1531.88
490.84	1509.35
491.04	1648.61
491.24	1619.94
491.44	1538.02
491.65	1562.60
491.85	1546.22
492.05	1632.23
492.25	1548.26
492.45	1540.07
492.65	1619.94
492.85	1578.98
493.05	1595.37
493.26	1546.22
493.46	1540.07
493.66	1605.61
493.86	1501.16
494.06	1517.54
494.26	1589.22
494.46	1581.03
494.66	1488.87
494.86	1605.61
495.07	1550.31
495.27	1603.56
495.47	1533.93
495.67	1548.26
495.87	1611.75
496.07	1431.53
496.27	1603.56
496.47	1529.83
496.67	1574.89
496.87	1572.84
497.08	1497.07
497.28	1654.76
497.48	1531.88
497.68	1658.85
497.88	1572.84
498.08	1546.22
498.28	1597.42
498.48	1488.87
498.68	1574.89
498.88	1505.26
499.08	1562.60
499.29	1578.98
499.49	1492.97
499.69	1548.26
499.89	1497.07
500.09	1447.91
500.29	1603.56
500.49	1636.33
500.69	1693.67
500.89	1542.12
501.09	1552.36
501.29	1499.11
501.49	1470.44
501.69	1499.11
501.89	1513.45
502.09	1581.03
502.30	1599.46
502.50	1574.89
502.70	1634.28
502.90	1597.42
503.10	1468.39
503.30	1458.15
503.50	1497.07
503.70	1529.83
503.90	1548.26
504.10	1515.50
504.30	1542.12
504.50	1472.49
504.70	1583.08
504.90	1513.45
505.10	1538.02
505.30	1554.41
505.50	1595.37
505.70	1652.71
505.90	1480.68
506.10	1550.31
506.30	1513.45
506.50	1572.84
506.70	1523.69
506.90	1556.46
507.11	1505.26
507.31	1533.93
507.51	1480.68
507.71	1644.52
507.91	1439.72
508.11	1587.18
508.31	1488.87
508.51	1597.42
508.71	1499.11
508.91	1484.78
509.11	1531.88
509.31	1554.41
509.51	1499.11
509.71	1578.98
509.91	1529.83
510.11	1499.11
510.31	1648.61
510.51	1546.22
510.71	1488.87
510.91	1591.27
511.11	1540.07
511.31	1585.13
511.51	1540.07
511.71	1529.83
511.91	1556.46
512.11	1531.88
512.31	1556.46
512.51	1546.22
512.71	1531.88
512.91	1499.11
513.11	1435.63
513.31	1595.37
513.51	1521.64
513.71	1542.12
513.91	1484.78
514.11	1619.94
514.31	1554.41
514.51	1578.98
514.71	1488.87
514.90	1497.07
515.10	1560.55
515.30	1513.45
515.50	1554.41
515.70	1595.37
515.90	1533.93
516.10	1601.51
516.30	1482.73
516.50	1525.74
516.70	1509.35
516.90	1499.11
517.10	1533.93
517.30	1656.81
517.50	1554.41
517.70	1523.69
517.90	1546.22
518.10	1499.11
518.30	1660.90
518.50	1507.30
518.70	1554.41
518.90	1562.60
519.10	1595.37
519.30	1507.30
519.50	1497.07
519.69	1673.19
519.89	1570.79
520.09	1542.12
520.29	1570.79
520.49	1585.13
520.69	1521.64
520.89	1480.68
521.09	1597.42
521.29	1925.09
521.49	1624.04
521.69	1554.41
521.89	1546.22
522.09	1599.46
522.29	1583.08
522.48	1597.42
522.68	1484.78
522.88	1513.45
523.08	1581.03
523.28	1619.94
523.48	1611.75
523.68	1562.60
523.88	1564.65
524.08	1525.74
524.28	1665.00
524.48	1603.56
524.68	1568.74
524.87	1595.37
525.07	1587.18
525.27	1521.64
525.47	1517.54
525.67	1488.87
525.87	1533.93
526.07	1640.42
526.27	1570.79
526.47	1591.27
526.67	1546.22
526.86	1406.95
527.06	1558.50
527.26	1546.22
527.46	1583.08
527.66	1564.65
527.86	1546.22
528.06	1538.02
528.26	1673.19
528.46	1474.54
528.65	1525.74
528.85	1521.64
529.05	1529.83
529.25	1540.07
529.45	1595.37
529.65	1521.64
529.85	1587.18
530.05	1456.11
530.24	1644.52
530.44	1521.64
530.64	1603.56
530.84	1546.22
531.04	1562.60
531.24	1568.74
531.44	1521.64
531.63	1515.50
531.83	1497.07
532.03	1595.37
532.23	1652.71
532.43	1759.21
532.63	1517.54
532.83	1546.22
533.02	1574.89
533.22	1507.30
533.42	1607.66
533.62	1581.03
533.82	1546.22
534.02	1628.14
534.22	1564.65
534.41	1495.02
534.61	1587.18
534.81	1572.84
535.01	1525.74
535.21	1632.23
535.41	1566.70
535.60	1538.02
535.80	1538.02
536.00	1538.02
536.20	1562.60
536.40	1439.72
536.60	1636.33
536.79	1548.26
536.99	1556.46
537.19	1677.29
537.39	1665.00
537.59	1591.27
537.78	1554.41
537.98	1566.70
538.18	1568.74
538.38	1769.44
538.58	1521.64
538.77	1607.66
538.97	1546.22
539.17	1671.14
539.37	1562.60
539.57	1556.46
539.77	1660.90
539.96	1677.29
540.16	1775.59
540.36	1628.14
540.56	1624.04
540.76	1662.95
540.95	1767.40
541.15	1718.25
541.35	1804.26
541.55	1816.55
541.74	1810.40
541.94	1955.81
542.14	1996.77
542.34	1908.71
542.54	1906.66
542.73	1933.28
542.93	1959.91
543.13	1966.05
543.33	1914.85
543.53	1890.28
543.72	1951.71
543.92	1851.36
544.12	1914.85
544.32	1939.43
544.51	1968.10
544.71	1837.03
544.91	1931.23
545.11	1939.43
545.30	1935.33
545.50	1914.85
545.70	2095.07
545.90	2295.77
546.10	2365.40
546.29	2602.97
546.49	2521.05
546.69	2523.10
546.89	2381.79
547.08	2398.17
547.28	2201.57
547.48	2201.57
547.68	2129.89
547.87	1886.18
548.07	1931.23
548.27	1800.16
548.47	1810.40
548.66	1857.51
548.86	1837.03
549.06	1783.78
549.25	1744.87
549.45	1769.44
549.65	1791.97
549.85	1861.60
550.04	1787.88
550.24	1693.67
550.44	1691.62
550.64	1689.57
550.83	1816.55
551.03	1736.68
551.23	1644.52
551.43	1726.44
551.62	1677.29
551.82	1736.68
552.02	1751.01
552.21	1628.14
552.41	1726.44
552.61	1734.63
552.81	1646.57
553.00	1644.52
553.20	1644.52
553.40	1722.34
553.59	1681.38
553.79	1701.86
553.99	1644.52
554.18	1607.66
554.38	1722.34
554.58	1652.71
554.78	1738.73
554.97	1654.76
555.17	1650.66
555.37	1662.95
555.56	1669.09
555.76	1677.29
555.96	1671.14
556.15	1673.19
556.35	1587.18
556.55	1646.57
556.74	1669.09
556.94	1703.91
557.14	1636.33
557.34	1619.94
557.53	1710.05
557.73	1646.57
557.93	1619.94
558.12	1621.99
558.32	1611.75
558.52	1771.49
558.71	1578.98
558.91	1619.94
559.11	1701.86
559.30	1734.63
559.50	1685.48
559.70	1611.75
559.89	1619.94
560.09	1624.04
560.29	1599.46
560.48	1587.18
560.68	1607.66
560.88	1652.71
561.07	1554.41
561.27	1587.18
561.46	1832.93
561.66	1742.82
561.86	1654.76
562.05	1759.21
562.25	1679.33
562.45	1710.05
562.64	1628.14
562.84	1746.92
563.04	1685.48
563.23	1751.01
563.43	1669.09
563.63	1808.36
563.82	1763.30
564.02	1841.12
564.21	1718.25
564.41	1751.01
564.61	1744.87
564.80	1802.21
565.00	1734.63
565.20	1826.79
565.39	1714.15
565.59	1712.10
565.78	1802.21
565.98	1896.42
566.18	1697.77
566.37	1834.98
566.57	1716.20
566.77	1853.41
566.96	1654.76
567.16	1791.97
567.35	1777.64
567.55	1818.60
567.75	1877.99
567.94	1660.90
568.14	1832.93
568.33	1877.99
568.53	1816.55
568.73	1957.86
568.92	1808.36
569.12	1851.36
569.31	1914.85
569.51	1783.78
569.71	1861.60
569.90	1841.12
570.10	1851.36
570.29	1972.19
570.49	1808.36
570.69	1966.05
570.88	1974.24
571.08	1816.55
571.27	1832.93
571.47	1914.85
571.66	2000.87
571.86	2004.96
572.06	1923.04
572.25	1925.09
572.45	2025.44
572.64	1939.43
572.84	1976.29
573.03	2101.22
573.23	2095.07
573.43	2170.85
573.62	1947.62
573.82	2072.54
574.01	2029.54
574.21	2045.92
574.40	2072.54
574.60	2113.50
574.79	2078.69
574.99	2217.95
575.19	2275.29
575.38	2217.95
575.58	2209.76
575.77	2258.91
575.97	2176.99
576.16	2236.38
576.36	2260.96
576.55	2342.88
576.75	2357.21
576.94	2367.45
577.14	2363.36
577.34	2424.80
577.53	2406.36
577.73	2404.32
577.92	2447.32
578.12	2537.43
578.31	2455.51
578.51	2537.43
578.70	2570.20
578.90	2660.31
579.09	2537.43
579.29	2709.46
579.48	2686.94
579.68	2766.81
579.87	2693.08
580.07	2688.98
580.26	2695.13
580.46	2779.09
580.65	2777.05
580.85	2848.72
581.04	3037.14
581.24	2752.47
581.43	2985.94
581.63	2762.71
581.82	2930.64
582.02	3039.19
582.21	3145.68
582.41	3102.67
582.60	3074.00
582.80	3241.93
582.99	3313.61
583.19	3217.36
583.38	3459.02
583.58	3454.92
583.77	3672.01
583.97	3596.23
584.16	3585.99
584.36	3520.46
584.55	3618.76
584.75	3729.35
584.94	3694.54
585.14	3635.14
585.33	3696.58
585.53	3807.17
585.72	3790.79
585.92	3940.29
586.11	4079.55
586.31	4130.75
586.50	4167.62
586.70	4319.17
586.89	4339.65
587.09	4288.45
587.28	4372.41
587.47	4540.35
587.67	4605.88
587.86	4761.53
588.06	4847.54
588.25	4896.69
588.45	4880.31
588.64	4925.36
588.84	5216.18
589.03	5113.78
589.23	5175.22
589.42	5388.21
589.61	5396.40
589.81	5429.17
590.00	5480.36
590.20	5363.63
590.39	5511.08
590.59	5568.43
590.78	5556.14
590.98	5547.95
591.17	5740.46
591.36	5674.92
591.56	5715.88
591.75	5805.99
591.95	5838.76
592.14	5816.23
592.34	5832.62
592.53	5676.97
592.72	5593.00
592.92	5789.61
593.11	5799.85
593.31	5478.32
593.50	5439.40
593.69	5416.88
593.89	5191.60
594.08	5160.88
594.28	4997.04
594.47	4937.65
594.67	4810.68
594.86	4503.48
595.05	4351.93
595.25	4390.84
595.44	4063.17
595.64	4044.74
595.83	4003.78
596.02	3897.28
596.22	3614.66
596.41	3602.38
596.61	3588.04
596.80	3512.27
596.99	3397.58
597.19	3278.80
597.38	3241.93
597.58	3250.13
597.77	3143.63
597.96	3110.86
598.16	2975.70
598.35	3086.29
598.54	2967.51
598.74	2775.00
598.93	2881.49
599.13	2746.33
599.32	2693.08
599.51	2652.12
599.71	2709.46
599.90	2648.02
600.09	2637.78
600.29	2521.05
600.48	2492.38
600.68	2435.03
600.87	2523.10
601.06	2611.16
601.26	2412.51
601.45	2504.67
601.64	2293.72
601.84	2392.03
602.03	2406.36
602.22	2496.47
602.42	2226.14
602.61	2318.30
602.80	2234.33
603.00	2308.06
603.19	2136.03
603.38	2301.92
603.58	2176.99
603.77	2086.88
603.96	2172.89
604.16	2162.66
604.35	2095.07
604.54	2119.65
604.74	2088.93
604.93	2090.98
605.12	2004.96
605.32	1966.05
605.51	1992.67
605.70	1980.39
605.90	1955.81
606.09	2054.11
606.28	1834.98
606.48	1865.70
606.67	1931.23
606.86	1947.62
607.06	1914.85
607.25	1875.94
607.44	1898.47
607.64	1808.36
607.83	1843.17
608.02	1832.93
608.22	1820.64
608.41	1744.87
608.60	1759.21
608.79	1804.26
608.99	1769.44
609.18	1988.58
609.37	1685.48
609.57	1875.94
609.76	1755.11
609.95	1767.40
610.15	1841.12
610.34	1820.64
610.53	1914.85
610.72	1865.70
610.92	1906.66
611.11	1986.53
611.30	2148.32
611.50	2004.96
611.69	2080.74
611.88	2136.03
612.07	2119.65
612.27	2013.15
612.46	1976.29
612.65	2015.20
612.84	1996.77
613.04	1824.74
613.23	2007.01
613.42	1849.32
613.62	1959.91
613.81	1882.08
614.00	1943.52
614.19	1777.64
614.39	1763.30
614.58	1849.32
614.77	1845.22
614.96	1767.40
615.16	1755.11
615.35	1720.29
615.54	1755.11
615.73	1677.29
615.93	1744.87
616.12	2021.35
616.31	1660.90
616.50	1677.29
616.70	1744.87
616.89	1701.86
617.08	1738.73
617.27	1681.38
617.47	1677.29
617.66	1695.72
617.85	1652.71
618.04	1632.23
618.23	1603.56
618.43	1570.79
618.62	1595.37
618.81	1726.44
619.00	1628.14
619.20	1660.90
619.39	1621.99
619.58	1712.10
619.77	1636.33
619.96	1632.23
620.16	1665.00
620.35	1648.61
620.54	1587.18
620.73	1542.12
620.93	1611.75
621.12	1603.56
621.31	1583.08
621.50	1769.44
621.69	1640.42
621.89	1507.30
622.08	1572.84
622.27	1570.79
622.46	1613.80
622.65	1605.61
622.85	1589.22
623.04	1703.91
623.23	1525.74
623.42	1488.87
623.61	1644.52
623.81	1648.61
624.00	1574.89
624.19	1597.42
624.38	1660.90
624.57	1705.96
624.76	1660.90
624.96	1531.88
625.15	1535.98
625.34	1595.37
625.53	1701.86
625.72	1546.22
625.91	1517.54
626.11	1595.37
626.30	1644.52
626.49	1615.85
626.68	1542.12
626.87	1619.94
627.06	1632.23
627.26	1490.92
627.45	1556.46
627.64	1726.44
627.83	1619.94
628.02	1542.12
628.21	1650.66
628.41	1597.42
628.60	1574.89
628.79	1505.26
628.98	1556.46
629.17	1589.22
629.36	1538.02
629.55	1621.99
629.75	1685.48
629.94	1570.79
630.13	1591.27
630.32	1546.22
630.51	1611.75
630.70	1597.42
630.89	1671.14
631.09	1644.52
631.28	1595.37
631.47	1621.99
631.66	1546.22
631.85	1632.23
632.04	1538.02
632.23	1636.33
632.42	1550.31
632.62	1587.18
632.81	1531.88
633.00	1538.02
633.19	1439.72
633.38	1615.85
633.57	1648.61
633.76	1554.41
633.95	1458.15
634.14	1482.73
634.34	1628.14
634.53	1531.88
634.72	1554.41
634.91	1736.68
635.10	1501.16
635.29	1513.45
635.48	1597.42
635.67	1497.07
635.86	1431.53
636.05	1548.26
636.24	1599.46
636.44	1423.34
636.63	1613.80
636.82	1572.84
637.01	1615.85
637.20	1546.22
637.39	1574.89
637.58	1562.60
637.77	1497.07
637.96	1529.83
638.15	1505.26
638.34	1474.54
638.53	1505.26
638.73	1587.18
638.92	1521.64
639.11	1605.61
639.30	1562.60
639.49	1499.11
639.68	1484.78
639.87	1589.22
640.06	1529.83
640.25	1548.26
640.44	1499.11
640.63	1581.03
640.82	1480.68
641.01	1513.45
641.20	1458.15
641.39	1492.97
641.58	1492.97
641.77	1556.46
641.96	1597.42
642.16	1529.83
642.35	1572.84
642.54	1611.75
642.73	1468.39
642.92	1591.27
643.11	1540.07
643.30	1554.41
643.49	1474.54
643.68	1570.79
643.87	1538.02
644.06	1497.07
644.25	1443.82
644.44	1583.08
644.63	1566.70
644.82	1531.88
645.01	1548.26
645.20	1480.68
645.39	1566.70
645.58	1507.30
645.77	1523.69
645.96	1529.83
646.15	1538.02
646.34	1619.94
646.53	1531.88
646.72	1556.46
646.91	1529.83
647.10	1431.53
647.29	1484.78
647.48	1595.37
647.67	1509.35
647.86	1499.11
648.05	1578.98
648.24	1497.07
648.43	1644.52
648.62	1505.26
648.81	1583.08
649.00	1497.07
649.19	1564.65
649.38	1546.22
649.57	1546.22
649.76	1472.49
649.95	1505.26
650.14	1572.84
650.33	1456.11
650.52	1578.98
650.71	1456.11
650.90	1507.30
651.09	1572.84
651.28	1513.45
651.47	1488.87
651.66	1554.41
651.85	1464.30
652.04	1488.87
652.23	1531.88
652.42	1546.22
652.61	1505.26
652.80	1550.31
652.99	1472.49
653.17	1515.50
653.36	1480.68
653.55	1499.11
653.74	1521.64
653.93	1540.07
654.12	1529.83
654.31	1509.35
654.50	1538.02
654.69	1546.22
654.88	1570.79
655.07	1521.64
655.26	1546.22
655.45	1458.15
655.64	1554.41
655.83	1505.26
656.02	1531.88
656.21	1603.56
656.39	1472.49
656.58	1546.22
656.77	1390.57
656.96	1484.78
657.15	1515.50
657.34	1578.98
657.53	1464.30
657.72	1597.42
657.91	1482.73
658.10	1505.26
658.29	1546.22
658.48	1488.87
658.67	1578.98
658.85	1521.64
659.04	1505.26
659.23	1554.41
659.42	1578.98
659.61	1558.50
659.80	1546.22
659.99	1611.75
660.18	1433.58
660.37	1550.31
660.56	1540.07
660.74	1587.18
660.93	1464.30
661.12	1521.64
661.31	1488.87
661.50	1488.87
661.69	1472.49
661.88	1521.64
662.07	1513.45
662.26	1546.22
662.44	1540.07
662.63	1538.02
662.82	1497.07
663.01	1587.18
663.20	1525.74
663.39	1570.79
663.58	1488.87
663.77	1452.01
663.95	1529.83
664.14	1566.70
664.33	1482.73
664.52	1472.49
664.71	1529.83
664.90	1513.45
665.09	1492.97
665.27	1662.95
665.46	1484.78
665.65	1556.46
665.84	1531.88
666.03	1515.50
666.22	1529.83
666.41	1636.33
666.59	1533.93
666.78	1431.53
666.97	1492.97
667.16	1507.30
667.35	1423.34
667.54	1472.49
667.72	1515.50
667.91	1540.07
668.10	1542.12
668.29	1488.87
668.48	1523.69
668.67	1546.22
668.85	1513.45
669.04	1605.61
669.23	1529.83
669.42	1456.11
669.61	1472.49
669.80	1499.11
669.98	1478.63
670.17	1570.79
670.36	1529.83
670.55	1456.11
670.74	1464.30
670.92	1533.93
671.11	1441.77
671.30	1523.69
671.49	1654.76
671.68	1540.07
671.86	1499.11
672.05	1613.80
672.24	1546.22
672.43	1480.68
672.62	1507.30
672.80	1472.49
672.99	1472.49
673.18	1538.02
673.37	1472.49
673.56	1560.55
673.74	1513.45
673.93	1550.31
674.12	1509.35
674.31	1464.30
674.50	1409.00
674.68	1447.91
674.87	1513.45
675.06	1497.07
675.25	1415.15
675.43	1515.50
675.62	1439.72
675.81	1431.53
676.00	1466.35
676.19	1503.21
676.37	1417.19
676.56	1443.82
676.75	1472.49
676.94	1505.26
677.12	1435.63
677.31	1480.68
677.50	1472.49
677.69	1523.69
677.87	1417.19
678.06	1517.54
678.25	1497.07
678.44	1513.45
678.62	1431.53
678.81	1495.02
679.00	1554.41
679.19	1515.50
679.37	1468.39
679.56	1376.24
679.75	1521.64
679.94	1546.22
680.12	1460.20
680.31	1546.22
680.50	1603.56
680.68	1499.11
680.87	1464.30
681.06	1554.41
681.25	1538.02
681.43	1550.31
681.62	1523.69
681.81	1482.73
682.00	1456.11
682.18	1507.30
682.37	1423.34
682.56	1409.00
682.74	1515.50
682.93	1507.30
683.12	1517.54
683.31	1529.83
683.49	1513.45
683.68	1490.92
683.87	1474.54
684.05	1554.41
684.24	1529.83
684.43	1480.68
684.61	1562.60
684.80	1523.69
684.99	1464.30
685.18	1540.07
685.36	1472.49
685.55	1449.96
685.74	1456.11
685.92	1558.50
686.11	1497.07
686.30	1406.95
686.48	1482.73
686.67	1497.07
686.86	1503.21
687.04	1464.30
687.23	1390.57
687.42	1513.45
687.60	1499.11
687.79	1583.08
687.98	1525.74
688.16	1562.60
688.35	1611.75
688.54	1628.14
688.72	1931.23
688.91	1578.98
689.10	1464.30
689.28	1462.25
689.47	1583.08
689.66	1607.66
689.84	1439.72
690.03	1548.26
690.22	1497.07
690.40	1488.87
690.59	1484.78
690.78	1509.35
690.96	1472.49
691.15	1507.30
691.34	1425.39
691.52	1619.94
691.71	1447.91
691.89	1603.56
692.08	1452.01
692.27	1466.35
692.45	1476.59
692.64	1505.26
692.83	1456.11
693.01	1415.15
693.20	1570.79
693.38	1472.49
693.57	1521.64
693.76	1505.26
693.94	1554.41
694.13	1654.76
694.32	1472.49
694.50	1603.56
694.69	1488.87
694.87	1558.50
695.06	1538.02
695.25	1415.15
695.43	1597.42
695.62	1429.48
695.80	1652.71
695.99	1406.95
696.18	1511.40
696.36	1456.11
696.55	1587.18
696.73	1472.49
696.92	1538.02
697.11	1521.64
697.29	1525.74
697.48	1490.92
697.66	1636.33
697.85	1521.64
698.04	1513.45
698.22	1517.54
698.41	1490.92
698.59	1497.07
698.78	1441.77
698.96	1568.74
699.15	1513.45
699.34	1523.69
699.52	1476.59
699.71	1472.49
699.89	1564.65
700.08	1488.87
700.26	1499.11
700.45	1548.26
700.64	1480.68
700.82	1550.31
701.01	1531.88
701.19	1521.64
701.38	1546.22
701.56	1521.64
701.75	1484.78
701.93	1513.45
702.12	1398.76
702.31	1497.07
702.49	1546.22
702.68	1554.41
702.86	1531.88
703.05	1546.22
703.23	1529.83
703.42	1693.67
703.60	1480.68
703.79	1546.22
703.97	1443.82
704.16	1583.08
704.34	1456.11
704.53	1513.45
704.72	1488.87
704.90	1521.64
705.09	1538.02
705.27	1546.22
705.46	1521.64
705.64	1472.49
705.83	1521.64
706.01	1456.11
706.20	1398.76
706.38	1595.37
706.57	1515.50
706.75	1513.45
706.94	1529.83
707.12	1488.87
707.31	1464.30
707.49	1597.42
707.68	1531.88
707.86	1578.98
708.05	1499.11
708.23	1515.50
708.42	1591.27
708.60	1540.07
708.79	1546.22
708.97	1611.75
709.16	1570.79
709.34	1456.11
709.53	1523.69
709.71	1660.90
709.90	1501.16
710.08	1578.98
710.27	1482.73
710.45	1513.45
710.64	1587.18
710.82	1505.26
711.00	1906.66
711.19	1570.79
711.37	1488.87
711.56	1464.30
711.74	1482.73
711.93	1425.39
712.11	1476.59
712.30	1468.39
712.48	1456.11
712.67	1589.22
712.85	1464.30
713.04	1548.26
713.22	1556.46
713.40	1544.17
713.59	1464.30
713.77	1533.93
713.96	1497.07
714.14	1621.99
714.33	1542.12
714.51	1521.64
714.70	1439.72
714.88	1505.26
715.06	1456.11
715.25	1548.26
715.43	1505.26
715.62	1458.15
715.80	1482.73
715.99	1476.59
716.17	1439.72
716.35	1499.11
716.54	1587.18
716.72	1558.50
716.91	1458.15
717.09	1562.60
717.28	1499.11
717.46	1621.99
717.64	1538.02
717.83	1630.18
718.01	1419.24
718.20	1570.79
718.38	1480.68
718.56	1492.97
718.75	1529.83
718.93	1464.30
719.12	1439.72
719.30	1595.37
719.48	1472.49
719.67	1449.96
719.85	1560.55
720.04	1497.07
720.22	1406.95
720.40	1417.19
720.59	1558.50
720.77	1517.54
720.96	1611.75
721.14	1439.72
721.32	1509.35
721.51	1472.49
721.69	1480.68
721.87	1464.30
722.06	1548.26
722.24	1529.83
722.43	1501.16
722.61	1572.84
722.79	1458.15
722.98	1548.26
723.16	1603.56
723.34	1597.42
723.53	1464.30
723.71	1589.22
723.90	1482.73
724.08	1488.87
724.26	1474.54
724.45	1497.07
724.63	1513.45
724.81	1538.02
725.00	1529.83
725.18	1499.11
725.36	1447.91
725.55	1538.02
725.73	1458.15
725.91	1521.64
726.10	1501.16
726.28	1505.26
726.46	1415.15
726.65	1562.60
726.83	1521.64
727.01	1472.49
727.20	1488.87
727.38	1566.70
727.56	1529.83
727.75	1497.07
727.93	1464.30
728.11	1423.34
728.30	1521.64
728.48	1431.53
728.66	1427.43
728.85	1439.72
729.03	1570.79
729.21	1472.49
729.40	1568.74
729.58	1603.56
729.76	1503.21
729.94	1546.22
730.13	1460.20
730.31	1464.30
730.49	1435.63
730.68	1472.49
730.86	1456.11
731.04	1564.65
731.23	1415.15
731.41	1431.53
731.59	1449.96
731.77	1578.98
731.96	1513.45
732.14	1570.79
732.32	1540.07
732.51	1482.73
732.69	1464.30
732.87	1449.96
733.05	1603.56
733.24	1482.73
733.42	1595.37
733.60	1443.82
733.79	1427.43
733.97	1482.73
734.15	1431.53
734.33	1505.26
734.52	1505.26
734.70	1619.94
734.88	1560.55
735.06	1394.67
735.25	1521.64
735.43	1523.69
735.61	1409.00
735.79	1488.87
735.98	1513.45
736.16	1947.62
736.34	1460.20
736.52	1488.87
736.71	1529.83
736.89	1456.11
737.07	1474.54
737.25	1464.30
737.44	1415.15
737.62	1499.11
737.80	1499.11
737.98	1480.68
738.17	1466.35
738.35	1464.30
738.53	1523.69
738.71	1458.15
738.89	1525.74
739.08	1441.77
739.26	1505.26
739.44	1476.59
739.62	1595.37
739.81	1531.88
739.99	1456.11
740.17	1480.68
740.35	1515.50
740.53	1570.79
740.72	1462.25
740.90	1488.87
741.08	1456.11
741.26	1476.59
741.44	1382.38
741.63	1415.15
741.81	1597.42
741.99	1531.88
742.17	1464.30
742.35	1538.02
742.54	1425.39
742.72	1572.84
742.90	1456.11
743.08	1460.20
743.26	1411.05
743.45	1480.68
743.63	1501.16
743.81	1460.20
743.99	1480.68
744.17	1515.50
744.35	1431.53
744.54	1570.79
744.72	1517.54
744.90	1488.87
745.08	1456.11
745.26	1499.11
745.44	1466.35
745.63	1509.35
745.81	1480.68
745.99	1624.04
746.17	1492.97
746.35	1499.11
746.53	1484.78
746.72	1538.02
746.90	1507.30
747.08	1531.88
747.26	1517.54
747.44	1540.07
747.62	1652.71
747.81	1431.53
747.99	1449.96
748.17	1423.34
748.35	1464.30
748.53	1474.54
748.71	1538.02
748.89	1540.07
749.07	1576.94
749.26	1464.30
749.44	1427.43
749.62	1466.35
749.80	1517.54
749.98	1488.87
750.16	1529.83
750.34	1521.64
750.52	1480.68
750.71	1484.78
750.89	1521.64
751.07	1587.18
751.25	1513.45
751.43	1458.15
751.61	1505.26
751.79	1433.58
751.97	1415.15
752.15	1439.72
752.34	1562.60
752.52	1490.92
752.70	1458.15
752.88	1554.41
753.06	1540.07
753.24	1431.53
753.42	1476.59
753.60	1472.49
753.78	1472.49
753.96	1431.53
754.15	1488.87
754.33	1525.74
754.51	1538.02
754.69	1529.83
754.87	1521.64
755.05	1595.37
755.23	1472.49
755.41	1400.81
755.59	1509.35
755.77	1443.82
755.95	1443.82
756.13	1613.80
756.31	1466.35
756.50	1505.26
756.68	1587.18
756.86	1531.88
757.04	1513.45
757.22	1570.79
757.40	1427.43
757.58	1488.87
757.76	1538.02
757.94	1544.17
758.12	1538.02
758.30	1499.11
758.48	1400.81
758.66	1466.35
758.84	1538.02
759.02	1488.87
759.20	1554.41
759.38	1447.91
759.56	1472.49
759.74	1591.27
759.92	1478.63
760.10	1513.45
760.28	1447.91
760.47	1398.76
760.65	1546.22
760.83	1517.54
761.01	1423.34
761.19	1466.35
761.37	1464.30
761.55	1460.20
761.73	1439.72
761.91	1521.64
762.09	1497.07
762.27	1540.07
762.45	1521.64
762.63	1441.77
762.81	1531.88
762.99	1538.02
763.17	1464.30
763.35	1513.45
763.53	1431.53
763.71	1409.00
763.89	1849.32
764.07	1499.11
764.25	1578.98
764.43	1538.02
764.61	1603.56
764.79	1468.39
764.97	1497.07
765.15	1591.27
765.33	1476.59
765.51	1587.18
765.69	1472.49
765.87	1464.30
766.05	1406.95
766.23	1509.35
766.41	1521.64
766.58	1464.30
766.76	1415.15
766.94	1472.49
767.12	1484.78
767.30	1531.88
767.48	1474.54
767.66	1476.59
767.84	1452.01
768.02	1572.84
768.20	1640.42
768.38	1556.46
768.56	1456.11
768.74	1515.50
768.92	1443.82
769.10	1529.83
769.28	1472.49
769.46	1488.87
769.64	1513.45
769.82	1531.88
770.00	1497.07
770.18	1542.12
770.36	1599.46
770.53	1529.83
770.71	1509.35
770.89	1497.07
771.07	1431.53
771.25	1464.30
771.43	1538.02
771.61	1456.11
771.79	1435.63
771.97	1374.19
772.15	1564.65
772.33	1427.43
772.51	1499.11
772.69	1474.54
772.86	1423.34
773.04	1529.83
773.22	1529.83
773.40	1554.41
773.58	1392.62
773.76	1546.22
773.94	1394.67
774.12	1542.12
774.30	1472.49
774.48	1513.45
774.65	1509.35
774.83	1480.68
775.01	1597.42
775.19	1546.22
775.37	1464.30
775.55	1509.35
775.73	1591.27
775.91	1449.96
776.09	1572.84
776.26	1390.57
776.44	1490.92
776.62	1513.45
776.80	1439.72
776.98	1501.16
777.16	1490.92
777.34	1578.98
777.52	1497.07
777.69	1570.79
777.87	1447.91
778.05	1464.30
778.23	1456.11
778.41	1480.68
778.59	1525.74
778.77	1431.53
778.94	1406.95
779.12	1423.34
779.30	1578.98
779.48	1581.03
779.66	1538.02
779.84	1476.59
780.02	1456.11
780.19	1505.26
780.37	1474.54
780.55	1449.96
780.73	1523.69
780.91	1611.75
781.09	1511.40
781.26	1587.18
781.44	1406.95
781.62	1441.77
781.80	1550.31
781.98	1482.73
782.16	1490.92
782.33	1542.12
782.51	1589.22
782.69	1441.77
782.87	1513.45
783.05	1482.73
783.22	1679.33
783.40	1466.35
783.58	1443.82
783.76	1488.87
783.94	1538.02
784.12	1443.82
784.29	1595.37
784.47	1456.11
784.65	1497.07
784.83	1488.87
785.01	1564.65
785.18	1538.02
785.36	1374.19
785.54	1611.75
785.72	1611.75
785.89	1515.50
786.07	1486.83
786.25	1529.83
786.43	1439.72
786.61	1472.49
786.78	1480.68
786.96	1570.79
787.14	1605.61
787.32	1515.50
787.49	1611.75
787.67	1456.11
787.85	1497.07
788.03	1472.49
788.21	1644.52
788.38	1531.88
788.56	1452.01
788.74	1464.30
788.92	1505.26
789.09	1484.78
789.27	1431.53
789.45	1513.45
789.63	1431.53
789.80	1458.15
789.98	1570.79
790.16	1538.02
790.34	1499.11
790.51	1474.54
790.69	1464.30
790.87	1464.30
791.05	1472.49
791.22	1595.37
791.40	1464.30
791.58	1374.19
791.76	1570.79
791.93	1546.22
792.11	1458.15
792.29	1546.22
792.46	1529.83
792.64	1507.30
792.82	1538.02
793.00	1521.64
793.17	1390.57
793.35	1472.49
793.53	1554.41
793.70	1540.07
793.88	1488.87
794.06	1523.69
794.24	1492.97
794.41	1529.83
794.59	1488.87
794.77	1529.83
794.94	1589.22
795.12	1572.84
795.30	1447.91
795.47	1538.02
795.65	1482.73
795.83	1456.11
796.01	1484.78
796.18	1538.02
796.36	1529.83
796.54	1525.74
796.71	1587.18
796.89	1546.22
797.07	1562.60
797.24	1525.74
797.42	1595.37
797.60	1546.22
797.77	1570.79
797.95	1531.88
798.13	1456.11
798.30	1531.88
798.48	1456.11
798.66	1574.89
798.83	1542.12
799.01	1456.11
799.19	1509.35
799.36	1548.26
799.54	1529.83
799.72	1482.73
799.89	1480.68
800.07	1544.17
800.25	1443.82
800.42	1540.07
800.60	1562.60
800.78	1529.83
800.95	1546.22
801.13	1585.13
801.30	1499.11
801.48	1411.05
801.66	1564.65
801.83	1497.07
802.01	1542.12
802.19	1468.39
802.36	1499.11
802.54	1548.26
802.72	1517.54
802.89	1644.52
803.07	1409.00
803.24	1529.83
803.42	1488.87
803.60	1474.54
803.77	1439.72
803.95	1513.45
804.12	1480.68
804.30	1488.87
804.48	1427.43
804.65	1497.07
804.83	1492.97
805.01	1540.07
805.18	1497.07
805.36	1456.11
805.53	1370.09
805.71	1562.60
805.88	1415.15
806.06	1535.98
806.24	1419.24
806.41	1505.26
806.59	1423.34
806.76	1456.11
806.94	1529.83
807.12	1447.91
807.29	1435.63
807.47	1423.34
807.64	1611.75
807.82	1515.50
807.99	1435.63
808.17	1497.07
808.35	1464.30
808.52	1519.59
808.70	1556.46
808.87	1327.08
809.05	1501.16
809.22	1472.49
809.40	1480.68
809.58	1474.54
809.75	1400.81
809.93	1468.39
810.10	1464.30
810.28	1431.53
810.45	1546.22
810.63	1435.63
810.80	1515.50
810.98	1630.18
811.15	1398.76
811.33	1523.69
811.51	1468.39
811.68	1392.62
811.86	1435.63
812.03	1415.15
812.21	1415.15
812.38	1458.15
812.56	1533.93
812.73	1521.64
812.91	1599.46
813.08	1464.30
813.26	1464.30
813.43	1505.26
813.61	1548.26
813.78	1611.75
813.96	1546.22
814.13	1464.30
814.31	1507.30
814.48	1472.49
814.66	1452.01
814.83	1472.49
815.01	1570.79
815.18	1589.22
815.36	1542.12
815.53	1521.64
815.71	1546.22
815.88	1578.98
816.06	1439.72
816.23	1456.11
816.41	1427.43
816.58	1482.73
816.76	1802.21
816.93	1480.68
817.11	1499.11
817.28	1478.63
817.46	1546.22
817.63	1550.31
817.81	1542.12
817.98	1439.72
818.16	1431.53
818.33	1542.12
818.51	1605.61
818.68	1427.43
818.86	1540.07
819.03	1452.01
819.21	1480.68
819.38	1466.35
819.55	1509.35
819.73	1546.22
819.90	1447.91
820.08	1558.50
820.25	1525.74
820.43	1538.02
820.60	1488.87
820.78	1499.11
820.95	1447.91
821.12	1439.72
821.30	1386.47
821.47	1521.64
821.65	1521.64
821.82	1515.50
822.00	1464.30
822.17	1476.59
822.35	1513.45
822.52	1511.40
822.69	1482.73
822.87	1513.45
823.04	1525.74
823.22	1382.38
823.39	1521.64
823.56	1540.07
823.74	1499.11
823.91	1419.24
824.09	1513.45
824.26	1398.76
824.44	1423.34
824.61	1613.80
824.78	1583.08
824.96	1505.26
825.13	1546.22
825.31	1449.96
825.48	1587.18
825.65	1578.98
825.83	1517.54
826.00	1456.11
826.18	1488.87
826.35	1538.02
826.52	1505.26
826.70	1406.95
826.87	1499.11
827.04	1423.34
827.22	1357.80
827.39	1531.88
827.57	1523.69
827.74	1466.35
827.91	1316.84
828.09	1497.07
828.26	1423.34
828.43	1488.87
828.61	1581.03
828.78	1554.41
828.96	1572.84
829.13	1449.96
829.30	1480.68
829.48	1497.07
829.65	1435.63
829.82	1447.91
830.00	1472.49
830.17	1406.95
830.34	1513.45
830.52	1472.49
830.69	1505.26
830.86	1554.41
831.04	1505.26
831.21	1542.12
831.38	1441.77
831.56	1480.68
831.73	1423.34
831.90	1458.15
832.08	1556.46
832.25	1519.59
832.42	1548.26
832.60	1497.07
832.77	1490.92
832.94	1472.49
833.12	1488.87
833.29	1386.47
833.46	1521.64
833.64	1488.87
833.81	1441.77
833.98	1505.26
834.16	1476.59
834.33	1546.22
834.50	1538.02
834.67	1507.30
834.85	1417.19
835.02	1443.82
835.19	1540.07
835.37	1505.26
835.54	1431.53
835.71	1449.96
835.89	1390.57
836.06	1564.65
836.23	1505.26
836.40	1480.68
836.58	1587.18
836.75	1564.65
836.92	1359.85
837.10	1431.53
837.27	1456.11
837.44	1509.35
837.61	1527.78
837.79	1415.15
837.96	1456.11
838.13	1542.12
838.30	1460.20
838.48	1431.53
838.65	1492.97
838.82	1488.87
838.99	1490.92
839.17	1488.87
839.34	1513.45
839.51	1499.11
839.69	1400.81
839.86	1544.17
840.03	1574.89
840.20	1488.87
840.37	1554.41
840.55	1470.44
840.72	1488.87
840.89	1554.41
841.06	1538.02
841.24	1464.30
841.41	1595.37
841.58	1513.45
841.75	1517.54
841.93	1513.45
842.10	1456.11
842.27	1497.07
842.44	1464.30
842.62	1480.68
842.79	1603.56
842.96	1433.58
843.13	1488.87
843.30	1578.98
843.48	1478.63
843.65	1529.83
843.82	1513.45
843.99	1505.26
844.16	1517.54
844.34	1497.07
844.51	1583.08
844.68	1542.12
844.85	1562.60
845.02	1505.26
845.20	1478.63
845.37	1509.35
845.54	1513.45
845.71	1400.81
845.88	1517.54
846.06	1505.26
846.23	1476.59
846.40	1521.64
846.57	1488.87
846.74	1490.92
846.91	1572.84
847.09	1466.35
847.26	1517.54
847.43	1574.89
847.60	1529.83
847.77	1556.46
847.94	1480.68
848.12	1490.92
848.29	1517.54
848.46	1427.43
848.63	1480.68
848.80	1447.91
848.97	1456.11
849.15	1538.02
849.32	1406.95
849.49	1423.34
849.66	1488.87
849.83	1464.30
850.00	1480.68
850.17	1497.07
850.35	1492.97
850.52	1492.97
850.69	1402.86
850.86	1472.49
851.03	1382.38
851.20	1441.77
851.37	1554.41
851.55	1476.59
851.72	1447.91
851.89	1611.75
852.06	1476.59
852.23	1556.46
852.40	1564.65
852.57	1449.96
852.74	1497.07
852.92	1490.92
853.09	1452.01
853.26	1466.35
853.43	1452.01
853.60	1538.02
853.77	1466.35
853.94	1472.49
854.11	1497.07
854.28	1783.78
854.45	1624.04
854.63	1476.59
854.80	1472.49
854.97	1572.84
855.14	1556.46
855.31	1509.35
855.48	1480.68
855.65	1447.91
855.82	1546.22
855.99	1439.72
856.16	1492.97
856.33	1497.07
856.50	1409.00
856.68	1542.12
856.85	1523.69
857.02	1441.77
857.19	1417.19
857.36	1548.26
857.53	1490.92
857.70	1476.59
857.87	1470.44
858.04	1382.38
858.21	1499.11
858.38	1480.68
858.55	1550.31
858.72	1525.74
858.89	1578.98
859.06	1570.79
859.23	1488.87
859.40	1619.94
859.58	1447.91
859.75	1439.72
859.92	1550.31
860.09	1554.41
860.26	1460.20
860.43	1452.01
860.60	1495.02
860.77	1513.45
860.94	1433.58
861.11	1548.26
861.28	1538.02
861.45	1521.64
861.62	1441.77
861.79	1439.72
861.96	1433.58
862.13	1484.78
862.30	1427.43
862.47	1390.57
862.64	1730.53
862.81	1480.68
862.98	1488.87
863.15	1456.11
863.32	1628.14
863.49	1480.68
863.66	1484.78
863.83	1538.02
864.00	1456.11
864.17	1490.92
864.34	1488.87
864.51	1435.63
864.68	1447.91
864.85	1466.35
865.02	1499.11
865.19	1546.22
865.36	1548.26
865.53	1417.19
865.70	1497.07
865.87	1513.45
866.04	1554.41
866.21	1415.15
866.38	1554.41
866.55	1515.50
866.72	1447.91
866.89	1558.50
867.06	1527.78
867.23	1505.26
867.40	1447.91
867.57	1529.83
867.73	1492.97
867.90	1595.37
868.07	1538.02
868.24	1531.88
868.41	1556.46
868.58	1554.41
868.75	1507.30
868.92	1513.45
869.09	1509.35
869.26	1433.58
869.43	1611.75
869.60	1460.20
869.77	1472.49
869.94	1531.88
870.11	1578.98
870.28	1499.11
870.45	1449.96
870.61	1484.78
870.78	1443.82
870.95	1431.53
871.12	1533.93
871.29	1574.89
871.46	1572.84
871.63	1484.78
871.80	1513.45
871.97	1449.96
872.14	1628.14
872.31	1484.78
872.47	1382.38
872.64	1554.41
872.81	1466.35
872.98	1527.78
873.15	1458.15
873.32	1607.66
873.49	1529.83
873.66	1558.50
873.83	1513.45
874.00	1562.60
874.16	1525.74
874.33	1546.22
874.50	1417.19
874.67	1513.45
874.84	1501.16
875.01	1523.69
875.18	1495.02
875.35	1431.53
875.51	1562.60
875.68	1505.26
875.85	1583.08
876.02	1497.07
876.19	1599.46
876.36	1587.18
876.53	1382.38
876.69	1507.30
876.86	1515.50
877.03	1499.11
877.20	1531.88
877.37	1521.64
877.54	1478.63
877.71	1515.50
877.87	1431.53
878.04	1505.26
878.21	1433.58
878.38	1564.65
878.55	1521.64
878.72	1431.53
878.88	1488.87
879.05	1597.42
879.22	1531.88
879.39	1503.21
879.56	1431.53
879.73	1636.33
879.89	1507.30
880.06	1638.38
880.23	1456.11
880.40	1488.87
880.57	1507.30
880.74	1497.07
880.90	1499.11
881.07	1546.22
881.24	1554.41
881.41	1492.97
881.58	1513.45
881.74	1562.60
881.91	1472.49
882.08	1538.02
882.25	1603.56
882.42	1447.91
882.58	1742.82
882.75	1531.88
882.92	1574.89
883.09	1488.87
883.26	1570.79
883.42	1531.88
883.59	1513.45
883.76	1431.53
883.93	1523.69
884.09	1523.69
884.26	1570.79
884.43	1628.14
884.60	1538.02
884.77	1611.75
884.93	1511.40
885.10	1474.54
885.27	1591.27
885.44	1611.75
885.60	1568.74
885.77	1562.60
885.94	1611.75
886.11	1554.41
886.27	1583.08
886.44	1630.18
886.61	1564.65
886.78	1546.22
886.94	1554.41
887.11	1529.83
887.28	1574.89
887.45	1488.87
887.61	1497.07
887.78	1499.11
887.95	1525.74
888.12	1595.37
888.28	1464.30
888.45	1576.94
888.62	1533.93
888.78	1505.26
888.95	1533.93
889.12	1488.87
889.29	1490.92
889.45	1480.68
889.62	1570.79
889.79	1562.60
889.95	1480.68
890.12	1447.91
890.29	1533.93
890.46	1464.30
890.62	1644.52
