Comprimento	Intensity
178.13	1267.69
178.35	1267.69
178.57	1267.69
178.78	1294.32
179.00	1275.88
179.22	1509.35
179.44	1480.68
179.66	1488.87
179.87	1535.98
180.09	1550.31
180.31	1566.70
180.53	1509.35
180.75	1460.20
180.96	1433.58
181.18	1507.30
181.40	1433.58
181.62	1427.43
181.84	1546.22
182.05	1488.87
182.27	1460.20
182.49	1464.30
182.71	1431.53
182.92	1597.42
183.14	1523.69
183.36	1581.03
183.58	1492.97
183.80	1554.41
184.01	1482.73
184.23	1548.26
184.45	1564.65
184.67	1546.22
184.89	1509.35
185.10	1540.07
185.32	1570.79
185.54	1515.50
185.76	1538.02
185.97	1490.92
186.19	1513.45
186.41	1490.92
186.63	1521.64
186.84	1488.87
187.06	1583.08
187.28	1677.29
187.50	1398.76
187.72	1581.03
187.93	1466.35
188.15	1521.64
188.37	1505.26
188.59	1572.84
188.80	1652.71
189.02	1595.37
189.24	1466.35
189.46	1525.74
189.67	1548.26
189.89	1488.87
190.11	1468.39
190.33	1521.64
190.54	1525.74
190.76	1521.64
190.98	1447.91
191.20	1521.64
191.41	1529.83
191.63	1628.14
191.85	1472.49
192.07	1558.50
192.28	1505.26
192.50	1538.02
192.72	1521.64
192.94	1603.56
193.15	1542.12
193.37	1538.02
193.59	1669.09
193.81	1556.46
194.02	1456.11
194.24	1538.02
194.46	1497.07
194.67	1558.50
194.89	1531.88
195.11	1570.79
195.33	1562.60
195.54	1605.61
195.76	1517.54
195.98	1529.83
196.20	1499.11
196.41	1546.22
196.63	1574.89
196.85	1546.22
197.06	1484.78
197.28	1505.26
197.50	1482.73
197.72	1529.83
197.93	1472.49
198.15	1546.22
198.37	1548.26
198.58	1497.07
198.80	1501.16
199.02	1531.88
199.24	1480.68
199.45	1513.45
199.67	1445.87
199.89	1490.92
200.10	1468.39
200.32	1542.12
200.54	1546.22
200.76	1472.49
200.97	1587.18
201.19	1435.63
201.41	1513.45
201.62	1472.49
201.84	1562.60
202.06	1587.18
202.28	1517.54
202.49	1570.79
202.71	1570.79
202.93	1513.45
203.14	1490.92
203.36	1546.22
203.58	1474.54
203.79	1472.49
204.01	1542.12
204.23	1529.83
204.44	1607.66
204.66	1591.27
204.88	1497.07
205.10	1529.83
205.31	1423.34
205.53	1521.64
205.75	1531.88
205.96	1503.21
206.18	1538.02
206.40	1476.59
206.61	1431.53
206.83	1488.87
207.05	1470.44
207.26	1431.53
207.48	1523.69
207.70	1554.41
207.91	1529.83
208.13	1488.87
208.35	1441.77
208.56	1513.45
208.78	1521.64
209.00	1529.83
209.21	1554.41
209.43	1529.83
209.65	1556.46
209.86	1523.69
210.08	1540.07
210.30	1595.37
210.51	1517.54
210.73	1548.26
210.95	1452.01
211.16	1548.26
211.38	1531.88
211.60	1443.82
211.81	1546.22
212.03	1538.02
212.25	1525.74
212.46	1578.98
212.68	1597.42
212.90	1488.87
213.11	1513.45
213.33	1562.60
213.55	1476.59
213.76	1628.14
213.98	1474.54
214.20	1538.02
214.41	1507.30
214.63	1554.41
214.84	1607.66
215.06	1572.84
215.28	1499.11
215.49	1570.79
215.71	1628.14
215.93	1628.14
216.14	1497.07
216.36	1583.08
216.58	1495.02
216.79	1454.06
217.01	1505.26
217.22	1441.77
217.44	1744.87
217.66	1589.22
217.87	1558.50
218.09	1458.15
218.31	1415.15
218.52	1476.59
218.74	1554.41
218.95	1578.98
219.17	1398.76
219.39	1515.50
219.60	1589.22
219.82	1558.50
220.04	1585.13
220.25	1474.54
220.47	1587.18
220.68	1581.03
220.90	1490.92
221.12	1562.60
221.33	1431.53
221.55	1517.54
221.77	1480.68
221.98	1497.07
222.20	1619.94
222.41	1490.92
222.63	1525.74
222.85	1470.44
223.06	1554.41
223.28	1566.70
223.49	1458.15
223.71	1499.11
223.93	1554.41
224.14	1509.35
224.36	1595.37
224.57	1509.35
224.79	1513.45
225.01	1562.60
225.22	1515.50
225.44	1486.83
225.65	1521.64
225.87	1572.84
226.09	1488.87
226.30	1529.83
226.52	1449.96
226.73	1423.34
226.95	1576.94
227.17	1538.02
227.38	1458.15
227.60	1591.27
227.81	1540.07
228.03	1472.49
228.24	1533.93
228.46	1581.03
228.68	1464.30
228.89	1529.83
229.11	1439.72
229.32	1484.78
229.54	1423.34
229.75	1570.79
229.97	1564.65
230.19	1556.46
230.40	1480.68
230.62	1488.87
230.83	1540.07
231.05	1531.88
231.26	1542.12
231.48	1505.26
231.70	1603.56
231.91	1456.11
232.13	1562.60
232.34	1566.70
232.56	1482.73
232.77	1587.18
232.99	1456.11
233.21	1720.29
233.42	1464.30
233.64	1603.56
233.85	1521.64
234.07	1554.41
234.28	1525.74
234.50	1464.30
234.71	1548.26
234.93	1632.23
235.15	1492.97
235.36	1556.46
235.58	1497.07
235.79	1431.53
236.01	1488.87
236.22	1558.50
236.44	1574.89
236.65	1488.87
236.87	1554.41
237.08	1513.45
237.30	1488.87
237.52	1488.87
237.73	1523.69
237.95	1464.30
238.16	1460.20
238.38	1597.42
238.59	1497.07
238.81	1554.41
239.02	1497.07
239.24	1482.73
239.45	1529.83
239.67	1585.13
239.88	1456.11
240.10	1603.56
240.31	1394.67
240.53	1501.16
240.74	1566.70
240.96	1597.42
241.18	1570.79
241.39	1488.87
241.61	1546.22
241.82	1468.39
242.04	1533.93
242.25	1636.33
242.47	1529.83
242.68	1546.22
242.90	1578.98
243.11	1521.64
243.33	1505.26
243.54	1695.72
243.76	1415.15
243.97	1619.94
244.19	1466.35
244.40	1501.16
244.62	1474.54
244.83	1476.59
245.05	1439.72
245.26	1374.19
245.48	1531.88
245.69	1570.79
245.91	1513.45
246.12	1472.49
246.34	1546.22
246.55	1458.15
246.77	1456.11
246.98	1540.07
247.20	1466.35
247.41	1548.26
247.63	1529.83
247.84	1550.31
248.06	1640.42
248.27	1441.77
248.49	1501.16
248.70	1447.91
248.92	1482.73
249.13	1439.72
249.35	1505.26
249.56	1488.87
249.78	1402.86
249.99	1540.07
250.21	1587.18
250.42	1472.49
250.64	1513.45
250.85	1562.60
251.06	1630.18
251.28	1464.30
251.49	1513.45
251.71	1490.92
251.92	1476.59
252.14	1603.56
252.35	1499.11
252.57	1572.84
252.78	1546.22
253.00	1513.45
253.21	1427.43
253.43	1480.68
253.64	1589.22
253.86	1482.73
254.07	1423.34
254.28	1439.72
254.50	1564.65
254.71	1558.50
254.93	1480.68
255.14	1505.26
255.36	1566.70
255.57	1542.12
255.79	1476.59
256.00	1505.26
256.22	1513.45
256.43	1554.41
256.64	1554.41
256.86	1556.46
257.07	1460.20
257.29	1531.88
257.50	1476.59
257.72	1474.54
257.93	1521.64
258.15	1607.66
258.36	1490.92
258.57	1529.83
258.79	1566.70
259.00	1587.18
259.22	1497.07
259.43	1497.07
259.65	1542.12
259.86	1513.45
260.08	1472.49
260.29	1726.44
260.50	1466.35
260.72	1964.00
260.93	1439.72
261.15	1464.30
261.36	1464.30
261.58	1548.26
261.79	1509.35
262.00	1538.02
262.22	1665.00
262.43	1513.45
262.65	1466.35
262.86	1564.65
263.07	1595.37
263.29	1605.61
263.50	1521.64
263.72	1546.22
263.93	1542.12
264.15	1538.02
264.36	1406.95
264.57	1490.92
264.79	1554.41
265.00	1615.85
265.22	1499.11
265.43	1515.50
265.64	1497.07
265.86	1497.07
266.07	1499.11
266.29	1521.64
266.50	1452.01
266.71	1554.41
266.93	1521.64
267.14	1540.07
267.36	1562.60
267.57	1548.26
267.78	1497.07
268.00	1538.02
268.21	1595.37
268.43	1538.02
268.64	1513.45
268.85	1441.77
269.07	1488.87
269.28	1570.79
269.50	1441.77
269.71	1587.18
269.92	1447.91
270.14	1492.97
270.35	1390.57
270.56	1558.50
270.78	1546.22
270.99	1538.02
271.21	1476.59
271.42	1581.03
271.63	1581.03
271.85	1538.02
272.06	1456.11
272.27	1505.26
272.49	1591.27
272.70	1556.46
272.92	1595.37
273.13	1546.22
273.34	1599.46
273.56	1488.87
273.77	1538.02
273.98	1464.30
274.20	1529.83
274.41	1521.64
274.63	1490.92
274.84	1484.78
275.05	1505.26
275.27	1507.30
275.48	1540.07
275.69	1488.87
275.91	1464.30
276.12	1505.26
276.33	1458.15
276.55	1564.65
276.76	1554.41
276.97	1652.71
277.19	1474.54
277.40	1484.78
277.61	1546.22
277.83	1505.26
278.04	1525.74
278.26	1492.97
278.47	1544.17
278.68	1675.24
278.90	1529.83
279.11	1507.30
279.32	1513.45
279.54	1581.03
279.75	1521.64
279.96	1548.26
280.18	1611.75
280.39	1611.75
280.60	1480.68
280.82	1621.99
281.03	1529.83
281.24	1587.18
281.46	1595.37
281.67	1578.98
281.88	1505.26
282.10	1562.60
282.31	1505.26
282.52	1531.88
282.74	1406.95
282.95	1591.27
283.16	1505.26
283.37	1497.07
283.59	1484.78
283.80	1523.69
284.01	1675.24
284.23	1507.30
284.44	1515.50
284.65	1621.99
284.87	1507.30
285.08	1581.03
285.29	1525.74
285.51	1538.02
285.72	1564.65
285.93	1591.27
286.15	1589.22
286.36	1431.53
286.57	1531.88
286.78	1523.69
287.00	1507.30
287.21	1538.02
287.42	1515.50
287.64	1515.50
287.85	1587.18
288.06	1564.65
288.28	1488.87
288.49	1464.30
288.70	1472.49
288.91	1480.68
289.13	1710.05
289.34	1554.41
289.55	1460.20
289.77	1507.30
289.98	1587.18
290.19	1556.46
290.40	1431.53
290.62	1466.35
290.83	1464.30
291.04	1511.40
291.26	1480.68
291.47	1529.83
291.68	1480.68
291.89	1447.91
292.11	1673.19
292.32	1472.49
292.53	1689.57
292.74	1558.50
292.96	1431.53
293.17	1505.26
293.38	1554.41
293.60	1578.98
293.81	1521.64
294.02	1447.91
294.23	1558.50
294.45	1587.18
294.66	1517.54
294.87	1660.90
295.08	1480.68
295.30	1660.90
295.51	1505.26
295.72	1656.81
295.93	1523.69
296.15	1611.75
296.36	1632.23
296.57	1619.94
296.78	1578.98
297.00	1474.54
297.21	1515.50
297.42	1548.26
297.63	1507.30
297.85	1578.98
298.06	1517.54
298.27	1558.50
298.48	1490.92
298.70	1515.50
298.91	1710.05
299.12	1460.20
299.33	1523.69
299.55	1460.20
299.76	1480.68
299.97	1531.88
300.18	1566.70
300.40	1449.96
300.61	1443.82
300.82	1578.98
301.03	1515.50
301.24	1482.73
301.46	1488.87
301.67	1480.68
301.88	1474.54
302.09	1507.30
302.31	1490.92
302.52	1566.70
302.73	1595.37
302.94	1535.98
303.15	1458.15
303.37	1449.96
303.58	1447.91
303.79	1499.11
304.00	1597.42
304.22	1497.07
304.43	1538.02
304.64	1505.26
304.85	1538.02
305.06	1554.41
305.28	1521.64
305.49	1603.56
305.70	1562.60
305.91	1482.73
306.12	1574.89
306.34	1492.97
306.55	1521.64
306.76	1552.36
306.97	1599.46
307.18	1513.45
307.40	1490.92
307.61	1525.74
307.82	1488.87
308.03	1517.54
308.24	1558.50
308.46	1513.45
308.67	1464.30
308.88	1529.83
309.09	1613.80
309.30	1554.41
309.52	1474.54
309.73	1597.42
309.94	1398.76
310.15	1515.50
310.36	1529.83
310.57	1476.59
310.79	1517.54
311.00	1507.30
311.21	1488.87
311.42	1562.60
311.63	1556.46
311.85	1458.15
312.06	1476.59
312.27	1538.02
312.48	1562.60
312.69	1482.73
312.90	1595.37
313.12	1499.11
313.33	1525.74
313.54	1607.66
313.75	1499.11
313.96	1554.41
314.17	1464.30
314.39	1456.11
314.60	1529.83
314.81	1554.41
315.02	1476.59
315.23	1497.07
315.44	1519.59
315.65	1562.60
315.87	1488.87
316.08	1538.02
316.29	1509.35
316.50	1480.68
316.71	1578.98
316.92	1474.54
317.14	1429.48
317.35	1556.46
317.56	1495.02
317.77	1578.98
317.98	1513.45
318.19	1529.83
318.40	1443.82
318.62	1636.33
318.83	1531.88
319.04	1628.14
319.25	1546.22
319.46	1646.57
319.67	1490.92
319.88	1578.98
320.09	1538.02
320.31	1535.98
320.52	1581.03
320.73	1499.11
320.94	1484.78
321.15	1433.58
321.36	1515.50
321.57	1488.87
321.78	1466.35
322.00	1525.74
322.21	1570.79
322.42	1452.01
322.63	1578.98
322.84	1480.68
323.05	1529.83
323.26	1456.11
323.47	1499.11
323.69	1464.30
323.90	1505.26
324.11	1402.86
324.32	1542.12
324.53	1521.64
324.74	1509.35
324.95	1566.70
325.16	1542.12
325.37	1538.02
325.59	1427.43
325.80	1513.45
326.01	1501.16
326.22	1581.03
326.43	1531.88
326.64	1554.41
326.85	1517.54
327.06	1507.30
327.27	1513.45
327.48	1576.94
327.69	1646.57
327.91	1513.45
328.12	1562.60
328.33	1515.50
328.54	1482.73
328.75	1562.60
328.96	1519.59
329.17	1449.96
329.38	1587.18
329.59	1538.02
329.80	1873.89
330.01	1630.18
330.23	1603.56
330.44	1572.84
330.65	1521.64
330.86	1540.07
331.07	1542.12
331.28	1562.60
331.49	1513.45
331.70	1480.68
331.91	1464.30
332.12	1480.68
332.33	1499.11
332.54	1595.37
332.75	1564.65
332.96	1480.68
333.17	1480.68
333.39	1562.60
333.60	1587.18
333.81	1488.87
334.02	1525.74
334.23	1497.07
334.44	1449.96
334.65	1513.45
334.86	1566.70
335.07	1533.93
335.28	1488.87
335.49	1599.46
335.70	1513.45
335.91	1472.49
336.12	1507.30
336.33	1673.19
336.54	1525.74
336.75	1529.83
336.96	1499.11
337.17	1529.83
337.39	1464.30
337.60	1595.37
337.81	1621.99
338.02	1570.79
338.23	1482.73
338.44	1456.11
338.65	1521.64
338.86	1505.26
339.07	1628.14
339.28	1482.73
339.49	1603.56
339.70	1505.26
339.91	1521.64
340.12	1531.88
340.33	1542.12
340.54	1490.92
340.75	1572.84
340.96	1554.41
341.17	1538.02
341.38	1525.74
341.59	1628.14
341.80	1558.50
342.01	1464.30
342.22	1525.74
342.43	1497.07
342.64	1505.26
342.85	1599.46
343.06	1513.45
343.27	1521.64
343.48	1554.41
343.69	1439.72
343.90	1439.72
344.11	1529.83
344.32	1492.97
344.53	1505.26
344.74	1490.92
344.95	1447.91
345.16	1611.75
345.37	1513.45
345.58	1595.37
345.79	1556.46
346.00	1597.42
346.21	1482.73
346.42	1497.07
346.63	1529.83
346.84	1554.41
347.05	1538.02
347.26	1392.62
347.47	1546.22
347.68	1529.83
347.89	1495.02
348.10	1480.68
348.31	1554.41
348.52	1464.30
348.73	1554.41
348.94	1525.74
349.15	1687.53
349.36	1452.01
349.57	1386.47
349.78	1523.69
349.99	1538.02
350.20	1548.26
350.41	1497.07
350.62	1439.72
350.83	1564.65
351.04	1497.07
351.25	1470.44
351.46	1521.64
351.67	1482.73
351.88	1390.57
352.09	1535.98
352.30	1546.22
352.50	1570.79
352.71	1503.21
352.92	1480.68
353.13	1581.03
353.34	1476.59
353.55	1546.22
353.76	1419.24
353.97	1562.60
354.18	1546.22
354.39	1581.03
354.60	1644.52
354.81	1513.45
355.02	1517.54
355.23	1578.98
355.44	1456.11
355.65	1466.35
355.86	1554.41
356.07	1546.22
356.28	1499.11
356.48	1554.41
356.69	1513.45
356.90	1521.64
357.11	1546.22
357.32	1513.45
357.53	1538.02
357.74	1570.79
357.95	1546.22
358.16	1497.07
358.37	1509.35
358.58	1540.07
358.79	1456.11
359.00	1558.50
359.21	1433.58
359.41	1578.98
359.62	1587.18
359.83	1558.50
360.04	1546.22
360.25	1554.41
360.46	1546.22
360.67	1482.73
360.88	1497.07
361.09	1556.46
361.30	1460.20
361.51	1564.65
361.72	1495.02
361.92	1636.33
362.13	1441.77
362.34	1482.73
362.55	1591.27
362.76	1433.58
362.97	1550.31
363.18	1540.07
363.39	1523.69
363.60	1538.02
363.81	1546.22
364.01	1611.75
364.22	1538.02
364.43	1578.98
364.64	1529.83
364.85	1587.18
365.06	1513.45
365.27	1505.26
365.48	1531.88
365.69	1554.41
365.89	1529.83
366.10	1603.56
366.31	1447.91
366.52	1548.26
366.73	1613.80
366.94	1710.05
367.15	1497.07
367.36	1488.87
367.57	1646.57
367.77	1603.56
367.98	1677.29
368.19	1538.02
368.40	1546.22
368.61	1619.94
368.82	1474.54
369.03	1599.46
369.23	1660.90
369.44	1423.34
369.65	1501.16
369.86	1509.35
370.07	1517.54
370.28	1581.03
370.49	1517.54
370.70	1570.79
370.90	1538.02
371.11	1513.45
371.32	1533.93
371.53	1587.18
371.74	1480.68
371.95	1488.87
372.16	1423.34
372.36	1554.41
372.57	1587.18
372.78	1505.26
372.99	1458.15
373.20	1492.97
373.41	1380.33
373.61	1562.60
373.82	1533.93
374.03	1425.39
374.24	1523.69
374.45	1546.22
374.66	1507.30
374.86	1556.46
375.07	1546.22
375.28	1497.07
375.49	1484.78
375.70	1447.91
375.91	1505.26
376.11	1521.64
376.32	1544.17
376.53	1529.83
376.74	1564.65
376.95	1996.77
377.16	1570.79
377.36	1472.49
377.57	1628.14
377.78	1597.42
377.99	1603.56
378.20	1507.30
378.40	1587.18
378.61	1572.84
378.82	1581.03
379.03	1595.37
379.24	1587.18
379.45	1415.15
379.65	1456.11
379.86	1466.35
380.07	1513.45
380.28	1525.74
380.49	1562.60
380.69	1605.61
380.90	1646.57
381.11	1521.64
381.32	1497.07
381.53	1689.57
381.73	1552.36
381.94	1538.02
382.15	1462.25
382.36	1513.45
382.57	1556.46
382.77	1464.30
382.98	1529.83
383.19	1499.11
383.40	1595.37
383.60	1597.42
383.81	1578.98
384.02	1562.60
384.23	1570.79
384.44	1521.64
384.64	1484.78
384.85	1556.46
385.06	1538.02
385.27	1521.64
385.48	1525.74
385.68	1497.07
385.89	1464.30
386.10	1554.41
386.31	1517.54
386.51	1529.83
386.72	1480.68
386.93	1583.08
387.14	1562.60
387.34	1554.41
387.55	1464.30
387.76	1533.93
387.97	1482.73
388.17	1564.65
388.38	1529.83
388.59	1548.26
388.80	1443.82
389.01	1482.73
389.21	1595.37
389.42	1562.60
389.63	1554.41
389.84	1460.20
390.04	1521.64
390.25	1548.26
390.46	1578.98
390.67	1540.07
390.87	1488.87
391.08	1578.98
391.29	1499.11
391.49	1509.35
391.70	1529.83
391.91	1576.94
392.12	1499.11
392.32	1466.35
392.53	1619.94
392.74	1546.22
392.95	1456.11
393.15	1607.66
393.36	1538.02
393.57	1546.22
393.78	1546.22
393.98	1570.79
394.19	1521.64
394.40	1693.67
394.60	1636.33
394.81	1525.74
395.02	1415.15
395.23	1488.87
395.43	1525.74
395.64	1638.38
395.85	1484.78
396.06	1517.54
396.26	1587.18
396.47	1474.54
396.68	1464.30
396.88	1558.50
397.09	1499.11
397.30	1605.61
397.50	1560.55
397.71	1572.84
397.92	1595.37
398.13	1581.03
398.33	1474.54
398.54	1613.80
398.75	1472.49
398.95	1570.79
399.16	1568.74
399.37	1513.45
399.57	1521.64
399.78	1595.37
399.99	1542.12
400.20	1687.53
400.40	1550.31
400.61	1505.26
400.82	1505.26
401.02	1572.84
401.23	1583.08
401.44	1482.73
401.64	1603.56
401.85	1611.75
402.06	1546.22
402.26	1505.26
402.47	1523.69
402.68	1677.29
402.88	1423.34
403.09	1619.94
403.30	1562.60
403.50	1480.68
403.71	1669.09
403.92	1480.68
404.12	1480.68
404.33	1587.18
404.54	1591.27
404.74	1546.22
404.95	1654.76
405.16	1554.41
405.36	1595.37
405.57	1546.22
405.78	1578.98
405.98	1529.83
406.19	1472.49
406.40	1628.14
406.60	1599.46
406.81	1525.74
407.02	1538.02
407.22	1517.54
407.43	1472.49
407.64	1554.41
407.84	1488.87
408.05	1587.18
408.26	1566.70
408.46	1673.19
408.67	1710.05
408.87	1513.45
409.08	1550.31
409.29	1685.48
409.49	1513.45
409.70	1603.56
409.91	1656.81
410.11	1619.94
410.32	1587.18
410.53	1533.93
410.73	1611.75
410.94	1652.71
411.14	1581.03
411.35	1613.80
411.56	1699.81
411.76	1767.40
411.97	1595.37
412.18	1628.14
412.38	1591.27
412.59	1660.90
412.79	1607.66
413.00	1712.10
413.21	1630.18
413.41	1669.09
413.62	1609.70
413.82	1687.53
414.03	1710.05
414.24	1695.72
414.44	1679.33
414.65	1710.05
414.86	1734.63
415.06	1845.22
415.27	1695.72
415.47	1802.21
415.68	1775.59
415.89	1767.40
416.09	1751.01
416.30	1718.25
416.50	1818.60
416.71	1972.19
416.92	1851.36
417.12	1955.81
417.33	1882.08
417.53	1845.22
417.74	1875.94
417.94	1957.86
418.15	2004.96
418.36	1877.99
418.56	1822.69
418.77	1931.23
418.97	2013.15
419.18	2054.11
419.39	1914.85
419.59	2015.20
419.80	1957.86
420.00	2009.06
420.21	1947.62
420.41	2039.78
420.62	2244.57
420.83	2023.39
421.03	2144.22
421.24	2205.66
421.44	2154.46
421.65	2168.80
421.85	2234.33
422.06	2127.84
422.27	2189.28
422.47	2211.81
422.68	2308.06
422.88	2303.96
423.09	2269.15
423.29	2334.68
423.50	2422.75
423.70	2406.36
423.91	2398.17
424.12	2408.41
424.32	2408.41
424.53	2506.71
424.73	2566.10
424.94	2521.05
425.14	2490.33
425.35	2594.78
425.55	2652.12
425.76	2670.55
425.96	2623.45
426.17	2602.97
426.37	2744.28
426.58	2703.32
426.79	2750.42
426.99	2867.16
427.20	2807.77
427.40	2883.54
427.61	2852.82
427.81	2930.64
428.02	2967.51
428.22	2957.27
428.43	3069.91
428.63	3020.75
428.84	3143.63
429.04	3102.67
429.25	3340.24
429.45	3274.70
429.66	3219.41
429.86	3325.90
430.07	3299.28
430.27	3325.90
430.48	3487.69
430.68	3514.31
430.89	3639.24
431.09	3688.39
431.30	3547.08
431.50	3817.41
431.71	3897.28
431.91	3921.86
432.12	3889.09
432.32	3897.28
432.53	4085.70
432.73	4069.31
432.94	4093.89
433.14	4229.06
433.35	4298.69
433.55	4276.16
433.76	4358.08
433.96	4622.27
434.17	4609.98
434.37	4782.01
434.58	4655.03
434.78	4937.65
434.99	5019.57
435.19	4972.47
435.40	5101.49
435.60	5226.42
435.81	5398.45
436.01	5437.36
436.22	5724.07
436.42	5470.12
436.63	5511.08
436.83	5830.57
437.04	5988.26
437.24	5855.14
437.45	5916.58
437.65	5781.42
437.86	6289.31
438.06	6227.87
438.26	6473.63
438.47	6358.94
438.67	6621.08
438.88	6635.42
439.08	6762.39
439.29	6977.43
439.49	7036.82
439.70	7231.38
439.90	7231.38
440.11	7526.29
440.31	7567.24
440.52	7575.44
440.72	7894.92
440.92	7804.81
441.13	7837.58
441.33	8357.76
441.54	8705.92
441.74	8478.59
441.95	8480.64
442.15	9084.79
442.36	8927.10
442.56	9457.52
442.76	9553.77
442.97	9535.34
443.17	9584.49
443.38	10049.38
443.58	9754.48
443.79	10028.90
443.99	10504.03
444.19	10999.64
444.40	10987.35
444.60	11016.02
444.81	11069.27
445.01	11564.88
445.22	11220.82
445.42	11904.84
445.62	12203.85
445.83	12515.14
446.03	12490.56
446.24	12912.44
446.44	13227.83
446.64	13432.63
446.85	12963.64
447.05	13817.65
447.26	14092.07
447.46	14221.10
447.67	14489.38
447.87	14714.66
448.07	15660.82
448.28	15435.54
448.48	15257.37
448.69	15212.31
448.89	15869.71
449.09	16105.23
449.30	16355.08
449.50	17024.76
449.71	16705.28
449.91	17731.31
450.11	17204.99
450.32	17293.05
450.52	17409.78
450.72	18210.54
450.93	18274.03
451.13	18589.41
451.34	18956.00
451.54	19089.12
451.74	18777.83
451.95	18630.37
452.15	18650.85
452.36	18908.90
452.56	20192.97
452.76	19097.31
452.97	19670.74
453.17	20674.24
453.37	19666.64
453.58	19939.02
453.78	20584.13
453.98	20094.67
454.19	19605.20
454.39	19390.17
454.60	20127.44
454.80	19695.32
455.00	19965.65
455.21	18925.28
455.41	20287.18
455.61	19310.30
455.82	19250.91
456.02	18511.59
456.22	18609.89
456.43	18413.29
456.63	18986.72
456.84	19220.19
457.04	18743.01
457.24	17514.23
457.45	18302.70
457.65	18544.36
457.85	17819.38
458.06	17370.87
458.26	16897.79
458.46	17102.59
458.67	17434.36
458.87	16512.77
459.07	16162.57
459.28	15892.24
459.48	15877.90
459.68	15550.23
459.89	15302.42
460.09	15230.74
460.29	15357.72
460.50	14288.68
460.70	14559.01
460.90	14243.62
461.11	14473.00
461.31	14442.28
461.51	14010.15
461.72	13831.98
461.92	13965.10
462.12	13055.80
462.32	12808.00
462.53	13432.63
462.73	13334.32
462.93	13092.66
463.14	12631.87
463.34	12078.92
463.54	12085.06
463.75	12171.08
463.95	12080.97
464.15	12214.09
464.36	12482.37
464.56	11788.11
464.76	11861.84
464.96	11605.84
465.17	11534.16
465.37	11253.59
465.57	11470.67
465.78	11648.85
465.98	11155.29
466.18	11302.74
466.39	10993.50
466.59	11370.32
466.79	11253.59
466.99	11380.56
467.20	11171.67
467.40	10903.39
467.60	10819.42
467.81	10780.51
468.01	10952.54
468.21	10868.57
468.41	10696.54
468.62	10549.09
468.82	10420.06
469.02	10499.94
469.22	10458.98
469.43	10444.64
469.63	10534.75
469.83	10434.40
470.04	10458.98
470.24	10411.87
470.44	10307.43
470.64	10602.33
470.85	10286.95
471.05	9832.30
471.25	9971.56
471.45	9844.59
471.66	10116.97
471.86	10086.25
472.06	9934.70
472.26	9836.39
472.47	9492.34
472.67	9713.52
472.87	9928.55
473.07	9525.10
473.28	9258.87
473.48	9197.43
473.68	9228.15
473.88	9316.21
474.09	9240.44
474.29	9052.02
474.49	9138.04
474.69	9222.00
474.90	9205.62
475.10	8992.63
475.30	8888.18
475.50	8755.07
475.70	8673.15
475.91	8820.60
476.11	8515.45
476.31	8783.74
476.51	8533.89
476.72	8583.04
476.92	8374.14
477.12	8329.09
477.32	8011.65
477.53	8140.68
477.73	8177.54
477.93	7960.45
478.13	7968.65
478.33	7804.81
478.54	7841.67
478.74	7747.47
478.94	7665.55
479.14	7784.33
479.34	7624.59
479.55	7632.78
479.75	7673.74
479.95	7774.09
480.15	7538.57
480.35	7632.78
480.56	7419.79
480.76	7593.87
480.96	7514.00
481.16	7317.39
481.36	7536.52
481.57	7313.30
481.77	7296.91
481.97	7194.51
482.17	7069.59
482.37	7266.19
482.58	7198.61
482.78	7237.52
482.98	7206.80
483.18	7245.71
483.38	6987.67
483.58	7198.61
483.79	7186.32
483.99	7092.12
484.19	7167.89
484.39	7114.64
484.59	7174.03
484.80	6961.05
485.00	7034.77
485.20	7018.39
485.40	6985.62
485.60	6940.57
485.80	6959.00
486.01	7002.01
486.21	6829.98
486.41	7165.84
486.61	7165.84
486.81	6897.56
487.01	6877.08
487.22	6920.09
487.42	6911.89
487.62	6854.55
487.82	6899.61
488.02	7051.16
488.22	6903.70
488.42	7100.31
488.63	7112.60
488.83	7002.01
489.03	6899.61
489.23	7079.83
489.43	6961.05
489.63	7067.54
489.83	6928.28
490.04	7079.83
490.24	6868.89
490.44	7141.27
490.64	6854.55
490.84	6834.07
491.04	7169.94
491.24	7018.39
491.44	6883.22
491.65	7002.01
491.85	6903.70
492.05	6838.17
492.25	7059.35
492.45	6897.56
492.65	6969.24
492.85	6813.59
493.05	6987.67
493.26	7120.79
493.46	6920.09
493.66	6832.02
493.86	6895.51
494.06	7100.31
494.26	7085.97
494.46	7034.77
494.66	7061.40
494.86	7053.20
495.07	7030.68
495.27	6954.90
495.47	7167.89
495.67	7042.96
495.87	7315.34
496.07	7264.15
496.27	7245.71
496.47	7272.34
496.67	7161.75
496.87	7389.07
497.08	7501.71
497.28	7411.60
497.48	7395.22
497.68	7528.33
497.88	7427.98
498.08	7575.44
498.28	7575.44
498.48	7389.07
498.68	7509.90
498.88	7473.04
499.08	7632.78
499.29	7782.28
499.49	7841.67
499.69	7747.47
499.89	7831.43
500.09	8050.57
500.29	7929.74
500.49	7950.21
500.69	8140.68
500.89	8001.41
501.09	7942.02
501.29	8112.00
501.49	7987.08
501.69	8279.94
501.89	8142.72
502.09	8224.64
502.30	8316.80
502.50	8255.36
502.70	8435.58
502.90	8476.54
503.10	8370.05
503.30	8568.70
503.50	8537.98
503.70	8525.69
503.90	8759.16
504.10	8871.80
504.30	8791.93
504.50	8832.89
504.70	8882.04
504.90	8918.90
505.10	9004.92
505.30	8959.86
505.50	9103.22
505.70	9289.59
505.90	9291.63
506.10	9305.97
506.30	9338.74
506.50	9475.95
506.70	9336.69
506.90	9516.91
507.11	9607.02
507.31	9510.77
507.51	9654.12
507.71	9688.94
507.91	9787.24
508.11	9803.63
508.31	9992.04
508.51	9969.51
508.71	10198.88
508.91	10221.41
509.11	10084.20
509.31	10196.84
509.51	10180.45
509.71	10479.46
509.91	10336.10
510.11	10354.53
510.31	10639.20
510.51	10540.90
510.71	10499.94
510.91	10680.16
511.11	10688.35
511.31	10737.50
511.51	10930.01
511.71	10942.30
511.91	10856.28
512.11	11114.33
512.31	10975.06
512.51	10927.96
512.71	11114.33
512.91	11220.82
513.11	11444.05
513.31	11360.08
513.51	11444.05
513.71	11403.09
513.91	11515.73
514.11	11761.48
514.31	11870.03
514.51	11876.17
514.71	11925.32
514.90	11798.35
515.10	12187.46
515.30	11939.66
515.50	11798.35
515.70	12265.28
515.90	12089.16
516.10	12253.00
516.30	12377.92
516.50	12291.91
516.70	12371.78
516.90	12261.19
517.10	12525.38
517.30	12678.97
517.50	12658.49
517.70	12787.52
517.90	12738.37
518.10	12769.09
518.30	12867.39
518.50	13014.84
518.70	12844.86
518.90	12826.43
519.10	13035.32
519.30	13031.23
519.50	13057.85
519.69	13023.03
519.89	13276.98
520.09	13045.56
520.29	13281.08
520.49	13399.86
520.69	13119.29
520.89	13260.60
521.09	13522.74
521.29	13950.76
521.49	13358.90
521.69	13522.74
521.89	13678.38
522.09	13688.62
522.29	13647.66
522.48	13690.67
522.68	13438.77
522.88	13643.57
523.08	13629.23
523.28	13958.96
523.48	13723.44
523.68	13868.84
523.88	13809.45
524.08	13696.82
524.28	13836.08
524.48	13895.47
524.68	13883.18
524.87	13920.04
525.07	13788.97
525.27	14016.30
525.47	13946.67
525.67	14059.31
525.87	13668.14
526.07	14028.59
526.27	13870.89
526.47	14057.26
526.67	13811.50
526.86	13764.40
527.06	13868.84
527.26	13965.10
527.46	14268.20
527.66	14030.63
527.86	14210.86
528.06	14047.02
528.26	14202.66
528.46	13881.13
528.65	14040.87
528.85	14192.42
529.05	13981.48
529.25	14159.66
529.45	14128.94
529.65	14051.11
529.85	14124.84
530.05	14155.56
530.24	14272.29
530.44	14071.59
530.64	14053.16
530.84	14163.75
531.04	14040.87
531.24	14178.09
531.44	14010.15
531.63	14128.94
531.83	13981.48
532.03	14030.63
532.23	14130.98
532.43	14149.42
532.63	14210.86
532.83	14079.79
533.02	14411.56
533.22	13956.91
533.42	14173.99
533.62	14335.78
533.82	13961.00
534.02	14354.21
534.22	14186.28
534.41	14169.90
534.61	14014.25
534.81	14186.28
535.01	13997.87
535.21	14153.51
535.41	14120.74
535.60	13842.22
535.80	14055.21
536.00	14329.64
536.20	14077.74
536.40	14212.90
536.60	14034.73
536.79	14186.28
536.99	14161.70
537.19	14219.05
537.39	14214.95
537.59	14001.96
537.78	14028.59
537.98	14260.01
538.18	14200.62
538.38	14278.44
538.58	13981.48
538.77	14376.74
538.97	14147.37
539.17	14229.29
539.37	14018.35
539.57	13829.93
539.77	14145.32
539.96	13999.91
540.16	14196.52
540.36	14210.86
540.56	14202.66
540.76	13932.33
540.95	14047.02
541.15	14112.55
541.35	14165.80
541.55	14399.27
541.74	14096.17
541.94	14110.50
542.14	13877.04
542.34	14087.98
542.54	14165.80
542.73	14260.01
542.93	13864.75
543.13	14001.96
543.33	14173.99
543.53	14235.43
543.72	14094.12
543.92	14350.12
544.12	14053.16
544.32	14141.22
544.51	14038.83
544.71	14112.55
544.91	13874.99
545.11	14001.96
545.30	14079.79
545.50	13793.07
545.70	14415.65
545.90	14053.16
546.10	14047.02
546.29	14278.44
546.49	14376.74
546.69	14137.13
546.89	14196.52
547.08	14335.78
547.28	13993.77
547.48	13965.10
547.68	14030.63
547.87	13817.65
548.07	13948.72
548.27	13870.89
548.47	13862.70
548.66	14030.63
548.86	13909.80
549.06	13621.04
549.25	13645.62
549.45	13776.69
549.65	13764.40
549.85	13860.65
550.04	13819.69
550.24	13657.90
550.44	13653.81
550.64	13666.10
550.83	13563.70
551.03	13809.45
551.23	13434.68
551.43	13524.79
551.62	13467.44
551.82	13502.26
552.02	13514.55
552.21	13672.24
552.41	13569.84
552.61	13455.15
552.81	13420.34
553.00	13399.86
553.20	13432.63
553.40	13678.38
553.59	13543.22
553.79	13422.39
553.99	13522.74
554.18	13365.04
554.38	13483.83
554.58	13389.62
554.78	13438.77
554.97	13328.18
555.17	13266.74
555.37	13326.13
555.56	13109.05
555.76	13373.24
555.96	13248.31
556.15	13123.38
556.35	13150.01
556.55	13303.60
556.74	13219.64
556.94	13315.89
557.14	12875.58
557.34	13223.73
557.53	13150.01
557.73	13176.63
557.93	13072.18
558.12	13276.98
558.32	13088.57
558.52	13432.63
558.71	13174.58
558.91	13080.38
559.11	13238.07
559.30	12957.50
559.50	13152.06
559.70	13227.83
559.89	13098.81
560.09	13088.57
560.29	13145.91
560.48	12908.35
560.68	13129.53
560.88	13156.15
561.07	13137.72
561.27	12834.62
561.46	13434.68
561.66	12969.79
561.86	13107.00
562.05	12828.48
562.25	13053.75
562.45	12826.43
562.64	12842.81
562.84	12896.06
563.04	13027.13
563.23	12898.11
563.43	12959.55
563.63	13074.23
563.82	13061.94
564.02	12941.11
564.21	12986.17
564.41	12922.68
564.61	12930.87
564.80	12855.10
565.00	12795.71
565.20	12732.22
565.39	12955.45
565.59	12863.29
565.78	12699.45
565.98	12894.01
566.18	12953.40
566.37	12820.28
566.57	12777.28
566.77	12785.47
566.96	12711.74
567.16	12775.23
567.35	12625.73
567.55	12732.22
567.75	12748.61
567.94	12590.91
568.14	12646.21
568.33	12695.36
568.53	12681.02
568.73	12842.81
568.92	12519.23
569.12	12678.97
569.31	12625.73
569.51	12662.59
569.71	12625.73
569.90	12492.61
570.10	12687.17
570.29	12578.62
570.49	12246.85
570.69	12580.67
570.88	12425.03
571.08	12443.46
571.27	12375.88
571.47	12433.22
571.66	12341.06
571.86	12570.43
572.06	12390.21
572.25	12429.12
572.45	12418.88
572.64	12261.19
572.84	12545.86
573.03	12488.51
573.23	12728.13
573.43	12379.97
573.62	12099.40
573.82	12375.88
574.01	12236.61
574.21	12080.97
574.40	12396.35
574.60	12410.69
574.79	12439.36
574.99	12253.00
575.19	12322.63
575.38	12519.23
575.58	12427.07
575.77	12265.28
575.97	12017.48
576.16	12064.58
576.36	12056.39
576.55	11908.94
576.75	12224.33
576.94	12418.88
577.14	12126.02
577.34	12080.97
577.53	11994.95
577.73	12031.82
577.92	11992.90
578.12	12347.20
578.31	11966.28
578.51	12052.30
578.70	11884.36
578.90	12169.03
579.09	11999.05
579.29	12099.40
579.48	12015.43
579.68	11929.42
579.87	11788.11
580.07	11829.07
580.26	11835.21
580.46	11698.00
580.65	12009.29
580.85	11872.07
581.04	11716.43
581.24	11818.83
581.43	11792.20
581.63	11663.18
581.82	11900.75
582.02	11589.46
582.21	11870.03
582.41	11605.84
582.60	11511.63
582.80	11777.87
582.99	11622.22
583.19	11646.80
583.38	11595.60
583.58	11519.82
583.77	11458.39
583.97	11519.82
584.16	11315.03
584.36	11509.58
584.55	11515.73
584.75	11507.54
584.94	11212.63
585.14	11378.51
585.33	11319.12
585.53	11394.90
585.72	11452.24
585.92	11405.14
586.11	11222.87
586.31	11368.27
586.50	11212.63
586.70	11224.92
586.89	10977.11
587.09	11253.59
587.28	11138.90
587.47	11143.00
587.67	11140.95
587.86	11222.87
588.06	11024.22
588.25	11048.79
588.45	11081.56
588.64	10893.15
588.84	11116.37
589.03	10936.15
589.23	10735.45
589.42	11028.31
589.61	10958.68
589.81	10794.84
590.00	10745.69
590.20	10788.70
590.39	10602.33
590.59	10889.05
590.78	10770.27
590.98	10780.51
591.17	10567.52
591.36	10639.20
591.56	10696.54
591.75	10770.27
591.95	10553.18
592.14	10475.36
592.34	10532.70
592.53	10639.20
592.72	10393.44
592.92	10532.70
593.11	10434.40
593.31	10422.11
593.50	10520.42
593.69	10487.65
593.89	10405.73
594.08	10532.70
594.28	10245.99
594.47	10274.66
594.67	10274.66
594.86	10295.14
595.05	10297.19
595.25	10213.22
595.44	10114.92
595.64	10239.84
595.83	10342.24
596.02	10094.44
596.22	10012.52
596.41	9979.75
596.61	10147.69
596.80	10207.08
596.99	9887.59
597.19	9926.50
597.38	9840.49
597.58	9975.66
597.77	9910.12
597.96	9688.94
598.16	9865.07
598.35	9863.02
598.54	9826.15
598.74	9922.41
598.93	9863.02
599.13	9535.34
599.32	9625.45
599.51	9553.77
599.71	9658.22
599.90	9439.09
600.09	9658.22
600.29	9404.27
600.48	9635.69
600.68	9688.94
600.87	9496.43
601.06	9592.69
601.26	9361.27
601.45	9217.91
601.64	9361.27
601.84	9346.93
602.03	9455.47
602.22	9254.77
602.42	9295.73
602.61	9156.47
602.80	9125.75
603.00	9156.47
603.19	9074.55
603.38	9205.62
603.58	8947.58
603.77	9273.20
603.96	9090.93
604.16	9144.18
604.35	9099.13
604.54	9031.54
604.74	9025.40
604.93	9052.02
605.12	8853.37
605.32	8970.10
605.51	8929.14
605.70	8836.99
605.90	8855.42
606.09	8800.12
606.28	8724.35
606.48	8728.44
606.67	8681.34
606.86	8963.96
607.06	8593.28
607.25	8591.23
607.44	8603.52
607.64	8429.44
607.83	8324.99
608.02	8640.38
608.22	8667.00
608.41	8521.60
608.60	8476.54
608.79	8525.69
608.99	8355.71
609.18	8478.59
609.37	8361.86
609.57	8288.13
609.76	8353.66
609.95	8200.07
610.15	8497.02
610.34	8396.67
610.53	8273.79
610.72	8165.25
610.92	8118.15
611.11	8009.61
611.30	8290.18
611.50	8476.54
611.69	8374.14
611.88	8279.94
612.07	8462.21
612.27	8222.59
612.46	8171.40
612.65	8134.53
612.84	8195.97
613.04	8189.83
613.23	8101.76
613.42	8001.41
613.62	8177.54
613.81	8238.98
614.00	8050.57
614.19	8021.89
614.39	7804.81
614.58	7931.78
614.77	7772.04
614.96	7886.73
615.16	7874.44
615.35	7853.96
615.54	7690.12
615.73	7733.13
615.93	7788.43
616.12	8089.48
616.31	7526.29
616.50	7796.62
616.70	7602.06
616.89	7452.56
617.08	7542.67
617.27	7858.06
617.47	7546.76
617.66	7628.68
617.85	7747.47
618.04	7413.65
618.23	7567.24
618.43	7436.17
618.62	7583.63
618.81	7747.47
619.00	7544.72
619.20	7528.33
619.39	7440.27
619.58	7628.68
619.77	7493.52
619.96	7485.33
620.16	7313.30
620.35	7370.64
620.54	7411.60
620.73	7610.25
620.93	7503.76
621.12	7399.31
621.31	7419.79
621.50	7509.90
621.69	7395.22
621.89	7331.73
622.08	7362.45
622.27	7151.51
622.46	7313.30
622.65	7354.26
622.85	7403.41
623.04	7395.22
623.23	7186.32
623.42	7198.61
623.61	7243.67
623.81	7401.36
624.00	7235.47
624.19	7055.25
624.38	7366.54
624.57	7104.40
624.76	7405.46
624.96	7075.73
625.15	7126.93
625.34	7016.34
625.53	7272.34
625.72	7100.31
625.91	7018.39
626.11	7133.08
626.30	6918.04
626.49	7053.20
626.68	6952.85
626.87	6989.72
627.06	6780.82
627.26	6922.13
627.45	6969.24
627.64	6756.25
627.83	6789.02
628.02	6864.79
628.21	6991.77
628.41	6674.33
628.60	6674.33
628.79	6690.71
628.98	6666.14
629.17	6682.52
629.36	6602.65
629.55	6651.80
629.75	6774.68
629.94	6457.25
630.13	6449.05
630.32	6391.71
630.51	6477.73
630.70	6289.31
630.89	6635.42
631.09	6322.08
631.28	6440.86
631.47	6449.05
631.66	6293.41
631.85	6338.46
632.04	6236.06
632.23	6313.89
632.42	6100.90
632.62	6315.94
632.81	6117.28
633.00	6217.63
633.19	5955.49
633.38	6018.98
633.57	5980.07
633.76	6031.27
633.95	6053.80
634.14	5924.77
634.34	5769.13
634.53	5961.64
634.72	5879.72
634.91	5887.91
635.10	5822.38
635.29	5930.92
635.48	5914.53
635.67	5740.46
635.86	5660.59
636.05	5904.29
636.24	5697.45
636.44	5750.70
636.63	5801.90
636.82	5593.00
637.01	5752.74
637.20	5660.59
637.39	5572.52
637.58	5576.62
637.77	5445.55
637.96	5404.59
638.15	5633.96
638.34	5445.55
638.53	5273.52
638.73	5457.84
638.92	5535.66
639.11	5470.12
639.30	5443.50
639.49	5365.68
639.68	5207.98
639.87	5347.25
640.06	5257.14
640.25	5396.40
640.44	5183.41
640.63	5412.78
640.82	5199.79
641.01	5154.74
641.20	5240.75
641.39	5193.65
641.58	5183.41
641.77	5212.08
641.96	5148.59
642.16	5146.55
642.35	5085.11
642.54	5101.49
642.73	5054.39
642.92	5101.49
643.11	5142.45
643.30	4986.80
643.49	4937.65
643.68	4954.04
643.87	4831.16
644.06	4990.90
644.25	4937.65
644.44	4937.65
644.63	4822.97
644.82	4888.50
645.01	4849.59
645.20	4880.31
645.39	4810.68
645.58	4855.73
645.77	4710.33
645.96	4833.21
646.15	4786.10
646.34	4757.43
646.53	4773.82
646.72	4753.34
646.91	4679.61
647.10	4644.79
647.29	4589.50
647.48	4732.86
647.67	4655.03
647.86	4605.88
648.05	4652.98
648.24	4634.55
648.43	4609.98
648.62	4560.83
648.81	4497.34
649.00	4489.15
649.19	4499.39
649.38	4378.56
649.57	4497.34
649.76	4560.83
649.95	4558.78
650.14	4454.33
650.33	4317.12
650.52	4374.46
650.71	4315.07
650.90	4470.72
651.09	4388.80
651.28	4347.84
651.47	4208.58
651.66	4356.03
651.85	4192.19
652.04	4315.07
652.23	4188.10
652.42	4167.62
652.61	4237.25
652.80	4298.69
652.99	4249.54
653.17	4229.06
653.36	4167.62
653.55	4216.77
653.74	4106.18
653.93	4184.00
654.12	4265.92
654.31	4192.19
654.50	4089.79
654.69	4171.71
654.88	4210.62
655.07	4118.47
655.26	4110.27
655.45	3999.68
655.64	4097.99
655.83	4061.12
656.02	4077.51
656.21	4126.66
656.39	3930.05
656.58	4040.64
656.77	3930.05
656.96	3973.06
657.15	3971.01
657.34	4052.93
657.53	3983.30
657.72	4044.74
657.91	3841.99
658.10	3823.56
658.29	3815.37
658.48	3809.22
658.67	3905.48
658.85	3782.60
659.04	3745.73
659.23	3958.72
659.42	3794.89
659.61	3864.52
659.80	3794.89
659.99	3866.56
660.18	3637.19
660.37	3751.88
660.56	3741.64
660.74	3882.95
660.93	3741.64
661.12	3618.76
661.31	3643.34
661.50	3710.92
661.69	3585.99
661.88	3710.92
662.07	3678.15
662.26	3735.50
662.44	3588.04
662.63	3549.13
662.82	3629.00
663.01	3639.24
663.20	3553.23
663.39	3569.61
663.58	3518.41
663.77	3555.27
663.95	3585.99
664.14	3547.08
664.33	3561.42
664.52	3456.97
664.71	3602.38
664.90	3512.27
665.09	3381.20
665.27	3389.39
665.46	3422.16
665.65	3467.21
665.84	3375.05
666.03	3440.59
666.22	3495.88
666.41	3348.43
666.59	3368.91
666.78	3342.28
666.97	3381.20
667.16	3446.73
667.35	3266.51
667.54	3430.35
667.72	3291.09
667.91	3235.79
668.10	3399.63
668.29	3217.36
668.48	3309.52
668.67	3299.28
668.85	3295.18
669.04	3373.00
669.23	3276.75
669.42	3225.55
669.61	3299.28
669.80	3211.22
669.98	3123.15
670.17	3268.56
670.36	3170.26
670.55	3200.98
670.74	3162.06
670.92	3397.58
671.11	3160.02
671.30	3176.40
671.49	3221.45
671.68	3160.02
671.86	2998.23
672.05	3258.32
672.24	3160.02
672.43	3196.88
672.62	3221.45
672.80	3153.87
672.99	3135.44
673.18	3053.52
673.37	3086.29
673.56	3145.68
673.74	3102.67
673.93	3164.11
674.12	3037.14
674.31	3033.04
674.50	2996.18
674.68	3012.56
674.87	3045.33
675.06	3102.67
675.25	3020.75
675.43	3037.14
675.62	2981.84
675.81	3129.30
676.00	2983.89
676.19	3020.75
676.37	2930.64
676.56	3135.44
676.75	2850.77
676.94	2936.79
677.12	2957.27
677.31	2922.45
677.50	2981.84
677.69	2959.31
677.87	2867.16
678.06	2867.16
678.25	2848.72
678.44	2893.78
678.62	2775.00
678.81	2910.16
679.00	2861.01
679.19	2848.72
679.37	2791.38
679.56	2854.87
679.75	2873.30
679.94	2951.12
680.12	2775.00
680.31	2856.92
680.50	2856.92
680.68	2867.16
680.87	2795.48
681.06	2883.54
681.25	2842.58
681.43	2924.50
681.62	2793.43
681.81	2709.46
682.00	2672.60
682.18	2809.81
682.37	2770.90
682.56	2709.46
682.74	2717.65
682.93	2799.57
683.12	2762.71
683.31	2758.61
683.49	2686.94
683.68	2711.51
683.87	2596.82
684.05	2686.94
684.24	2668.50
684.43	2652.12
684.61	2729.94
684.80	2668.50
684.99	2654.17
685.18	2670.55
685.36	2670.55
685.55	2652.12
685.74	2629.59
685.92	2670.55
686.11	2602.97
686.30	2562.01
686.48	2645.98
686.67	2629.59
686.86	2578.39
687.04	2688.98
687.23	2596.82
687.42	2617.30
687.60	2611.16
687.79	2635.74
687.98	2553.82
688.16	2613.21
688.35	2629.59
688.54	2668.50
688.72	3053.52
688.91	2580.44
689.10	2594.78
689.28	2533.34
689.47	2676.70
689.66	2627.54
689.84	2508.76
690.03	2537.43
690.22	2594.78
690.40	2586.58
690.59	2533.34
690.78	2463.71
690.96	2521.05
691.15	2441.18
691.34	2480.09
691.52	2480.09
691.71	2410.46
691.89	2512.86
692.08	2402.27
692.27	2432.99
692.45	2521.05
692.64	2562.01
692.83	2408.41
693.01	2400.22
693.20	2426.84
693.38	2430.94
693.57	2492.38
693.76	2439.13
693.94	2455.51
694.13	2580.44
694.32	2389.98
694.50	2545.63
694.69	2531.29
694.87	2426.84
695.06	2412.51
695.25	2349.02
695.43	2545.63
695.62	2326.49
695.80	2473.95
695.99	2316.25
696.18	2394.08
696.36	2422.75
696.55	2443.23
696.73	2414.56
696.92	2365.40
697.11	2332.64
697.29	2443.23
697.48	2332.64
697.66	2488.28
697.85	2324.44
698.04	2365.40
698.22	2383.84
698.41	2381.79
698.59	2260.96
698.78	2283.49
698.96	2344.92
699.15	2402.27
699.34	2324.44
699.52	2291.68
699.71	2359.26
699.89	2416.60
700.08	2250.72
700.26	2398.17
700.45	2375.64
700.64	2267.10
700.82	2250.72
701.01	2242.53
701.19	2361.31
701.38	2316.25
701.56	2246.62
701.75	2217.95
701.93	2217.95
702.12	2246.62
702.31	2252.77
702.49	2267.10
702.68	2379.74
702.86	2267.10
703.05	2316.25
703.23	2211.81
703.42	2381.79
703.60	2240.48
703.79	2312.16
703.97	2176.99
704.16	2351.07
704.34	2301.92
704.53	2299.87
704.72	2187.23
704.90	2201.57
705.09	2162.66
705.27	2291.68
705.46	2213.85
705.64	2162.66
705.83	2269.15
706.01	2269.15
706.20	2201.57
706.38	2340.83
706.57	2244.57
706.75	2201.57
706.94	2136.03
707.12	2213.85
707.31	2176.99
707.49	2258.91
707.68	2220.00
707.86	2201.57
708.05	2138.08
708.23	2201.57
708.42	2203.61
708.60	2127.84
708.79	2303.96
708.97	2260.96
709.16	2226.14
709.34	2111.46
709.53	2078.69
709.71	2113.50
709.90	2168.80
710.08	2226.14
710.27	2004.96
710.45	2099.17
710.64	2228.19
710.82	2160.61
711.00	2484.19
711.19	2088.93
711.37	2086.88
711.56	2072.54
711.74	2185.18
711.93	2111.46
712.11	2170.85
712.30	2004.96
712.48	2090.98
712.67	2148.32
712.85	2095.07
713.04	2095.07
713.22	2230.24
713.40	2127.84
713.59	2050.02
713.77	2217.95
713.96	2041.82
714.14	2138.08
714.33	2103.26
714.51	2066.40
714.70	2070.50
714.88	2029.54
715.06	2070.50
715.25	2017.25
715.43	2037.73
715.62	2078.69
715.80	1984.48
715.99	2027.49
716.17	1959.91
716.35	2021.35
716.54	2070.50
716.72	2056.16
716.91	1990.63
717.09	2052.06
717.28	2050.02
717.46	2170.85
717.64	2013.15
717.83	2103.26
718.01	1914.85
718.20	1974.24
718.38	1918.95
718.56	1988.58
718.75	2000.87
718.93	2025.44
719.12	1996.77
719.30	2013.15
719.48	1841.12
719.67	1964.00
719.85	2013.15
720.04	1908.71
720.22	1986.53
720.40	1916.90
720.59	2056.16
720.77	1974.24
720.96	2056.16
721.14	1898.47
721.32	1953.76
721.51	1918.95
721.69	1966.05
721.87	1949.67
722.06	2033.63
722.24	1966.05
722.43	1918.95
722.61	1939.43
722.79	1947.62
722.98	1898.47
723.16	2000.87
723.34	1955.81
723.53	1904.61
723.71	2037.73
723.90	1939.43
724.08	1947.62
724.26	1877.99
724.45	1906.66
724.63	1894.37
724.81	1933.28
725.00	1923.04
725.18	1966.05
725.36	1947.62
725.55	1931.23
725.73	1839.08
725.91	1996.77
726.10	1935.33
726.28	1966.05
726.46	1923.04
726.65	1918.95
726.83	1992.67
727.01	1900.52
727.20	1865.70
727.38	1902.56
727.56	1898.47
727.75	1964.00
727.93	1810.40
728.11	1882.08
728.30	1943.52
728.48	1814.50
728.66	1849.32
728.85	1808.36
729.03	1886.18
729.21	1816.55
729.40	1923.04
729.58	1898.47
729.76	1812.45
729.94	1808.36
730.13	1863.65
730.31	1775.59
730.49	1740.77
730.68	1800.16
730.86	1775.59
731.04	1898.47
731.23	1769.44
731.41	1718.25
731.59	1796.07
731.77	1853.41
731.96	1859.56
732.14	1943.52
732.32	1929.19
732.51	1751.01
732.69	1824.74
732.87	1759.21
733.05	1910.75
733.24	1857.51
733.42	1800.16
733.60	1841.12
733.79	1800.16
733.97	1808.36
734.15	1738.73
734.33	1857.51
734.52	1783.78
734.70	1853.41
734.88	1843.17
735.06	1802.21
735.25	1849.32
735.43	1767.40
735.61	1710.05
735.79	1849.32
735.98	1800.16
736.16	2211.81
736.34	1730.53
736.52	1730.53
736.71	1867.75
736.89	1751.01
737.07	1925.09
737.25	1726.44
737.44	1710.05
737.62	1769.44
737.80	1853.41
737.98	1802.21
738.17	1742.82
738.35	1763.30
738.53	1820.64
738.71	1818.60
738.89	1763.30
739.08	1751.01
739.26	1804.26
739.44	1794.02
739.62	1800.16
739.81	1777.64
739.99	1753.06
740.17	1777.64
740.35	1742.82
740.53	1742.82
740.72	1712.10
740.90	1771.49
741.08	1728.49
741.26	1656.81
741.44	1818.60
741.63	1718.25
741.81	1968.10
741.99	1708.01
742.17	1791.97
742.35	1800.16
742.54	1685.48
742.72	1808.36
742.90	1726.44
743.08	1687.53
743.26	1718.25
743.45	1800.16
743.63	1685.48
743.81	1742.82
743.99	1759.21
744.17	1607.66
744.35	1720.29
744.54	1791.97
744.72	1730.53
744.90	1677.29
745.08	1638.38
745.26	1767.40
745.44	1720.29
745.63	1701.86
745.81	1710.05
745.99	1761.25
746.17	1662.95
746.35	1662.95
746.53	1607.66
746.72	1726.44
746.90	1646.57
747.08	1693.67
747.26	1693.67
747.44	1746.92
747.62	1816.55
747.81	1644.52
747.99	1660.90
748.17	1636.33
748.35	1687.53
748.53	1679.33
748.71	1712.10
748.89	1736.68
749.07	1757.16
749.26	1677.29
749.44	1591.27
749.62	1613.80
749.80	1613.80
749.98	1609.70
750.16	1701.86
750.34	1736.68
750.52	1662.95
750.71	1595.37
750.89	1734.63
751.07	1701.86
751.25	1572.84
751.43	1593.32
751.61	1726.44
751.79	1554.41
751.97	1665.00
752.15	1595.37
752.34	1662.95
752.52	1548.26
752.70	1685.48
752.88	1791.97
753.06	1613.80
753.24	1634.28
753.42	1581.03
753.60	1652.71
753.78	1611.75
753.96	1597.42
754.15	1652.71
754.33	1734.63
754.51	1697.77
754.69	1636.33
754.87	1662.95
755.05	1697.77
755.23	1628.14
755.41	1591.27
755.59	1703.91
755.77	1578.98
755.95	1615.85
756.13	1744.87
756.31	1638.38
756.50	1619.94
756.68	1570.79
756.86	1685.48
757.04	1646.57
757.22	1714.15
757.40	1662.95
757.58	1548.26
757.76	1742.82
757.94	1730.53
758.12	1791.97
758.30	1703.91
758.48	1597.42
758.66	1611.75
758.84	1724.39
759.02	1581.03
759.20	1697.77
759.38	1644.52
759.56	1552.36
759.74	1751.01
759.92	1613.80
760.10	1687.53
760.28	1669.09
760.47	1474.54
760.65	1630.18
760.83	1732.58
761.01	1513.45
761.19	1611.75
761.37	1607.66
761.55	1587.18
761.73	1570.79
761.91	1595.37
762.09	1572.84
762.27	1630.18
762.45	1603.56
762.63	1644.52
762.81	1710.05
762.99	1660.90
763.17	1679.33
763.35	1619.94
763.53	1638.38
763.71	1581.03
763.89	1898.47
764.07	1660.90
764.25	1714.15
764.43	1581.03
764.61	1720.29
764.79	1652.71
764.97	1587.18
765.15	1775.59
765.33	1728.49
765.51	1587.18
765.69	1546.22
765.87	1554.41
766.05	1644.52
766.23	1613.80
766.41	1607.66
766.58	1636.33
766.76	1554.41
766.94	1566.70
767.12	1628.14
767.30	1662.95
767.48	1562.60
767.66	1644.52
767.84	1652.71
768.02	1677.29
768.20	1701.86
768.38	1736.68
768.56	1669.09
768.74	1597.42
768.92	1574.89
769.10	1548.26
769.28	1554.41
769.46	1603.56
769.64	1619.94
769.82	1644.52
770.00	1619.94
770.18	1621.99
770.36	1718.25
770.53	1644.52
770.71	1562.60
770.89	1656.81
771.07	1669.09
771.25	1540.07
771.43	1564.65
771.61	1619.94
771.79	1570.79
771.97	1490.92
772.15	1640.42
772.33	1515.50
772.51	1548.26
772.69	1513.45
772.86	1533.93
773.04	1531.88
773.22	1615.85
773.40	1611.75
773.58	1529.83
773.76	1611.75
773.94	1474.54
774.12	1621.99
774.30	1595.37
774.48	1497.07
774.65	1583.08
774.83	1525.74
775.01	1652.71
775.19	1570.79
775.37	1497.07
775.55	1529.83
775.73	1583.08
775.91	1538.02
776.09	1546.22
776.26	1554.41
776.44	1583.08
776.62	1562.60
776.80	1531.88
776.98	1531.88
777.16	1578.98
777.34	1619.94
777.52	1499.11
777.69	1578.98
777.87	1548.26
778.05	1562.60
778.23	1505.26
778.41	1679.33
778.59	1603.56
778.77	1546.22
778.94	1542.12
779.12	1542.12
779.30	1597.42
779.48	1628.14
779.66	1587.18
779.84	1595.37
780.02	1572.84
780.19	1570.79
780.37	1464.30
780.55	1660.90
780.73	1572.84
780.91	1654.76
781.09	1597.42
781.26	1597.42
781.44	1595.37
781.62	1548.26
781.80	1499.11
781.98	1531.88
782.16	1495.02
782.33	1595.37
782.51	1660.90
782.69	1554.41
782.87	1554.41
783.05	1556.46
783.22	1824.74
783.40	1507.30
783.58	1480.68
783.76	1525.74
783.94	1603.56
784.12	1521.64
784.29	1564.65
784.47	1482.73
784.65	1570.79
784.83	1581.03
785.01	1609.70
785.18	1587.18
785.36	1523.69
785.54	1591.27
785.72	1681.38
785.89	1628.14
786.07	1439.72
786.25	1509.35
786.43	1529.83
786.61	1433.58
786.78	1513.45
786.96	1554.41
787.14	1646.57
787.32	1488.87
787.49	1660.90
787.67	1505.26
787.85	1439.72
788.03	1542.12
788.21	1628.14
788.38	1513.45
788.56	1497.07
788.74	1538.02
788.92	1611.75
789.09	1558.50
789.27	1497.07
789.45	1591.27
789.63	1480.68
789.80	1423.34
789.98	1607.66
790.16	1603.56
790.34	1529.83
790.51	1497.07
790.69	1505.26
790.87	1513.45
791.05	1562.60
791.22	1640.42
791.40	1480.68
791.58	1427.43
791.76	1554.41
791.93	1665.00
792.11	1603.56
792.29	1540.07
792.46	1538.02
792.64	1480.68
792.82	1570.79
793.00	1611.75
793.17	1505.26
793.35	1538.02
793.53	1568.74
793.70	1507.30
793.88	1431.53
794.06	1578.98
794.24	1521.64
794.41	1515.50
794.59	1523.69
794.77	1529.83
794.94	1621.99
795.12	1578.98
795.30	1521.64
795.47	1613.80
795.65	1515.50
795.83	1587.18
796.01	1492.97
796.18	1497.07
796.36	1542.12
796.54	1525.74
796.71	1546.22
796.89	1638.38
797.07	1531.88
797.24	1464.30
797.42	1720.29
797.60	1644.52
797.77	1644.52
797.95	1605.61
798.13	1488.87
798.30	1562.60
798.48	1433.58
798.66	1578.98
798.83	1615.85
799.01	1587.18
799.19	1529.83
799.36	1554.41
799.54	1585.13
799.72	1566.70
799.89	1556.46
800.07	1507.30
800.25	1431.53
800.42	1529.83
800.60	1587.18
800.78	1513.45
800.95	1619.94
801.13	1648.61
801.30	1468.39
801.48	1517.54
801.66	1550.31
801.83	1630.18
802.01	1554.41
802.19	1423.34
802.36	1452.01
802.54	1558.50
802.72	1538.02
802.89	1695.72
803.07	1521.64
803.24	1621.99
803.42	1562.60
803.60	1482.73
803.77	1513.45
803.95	1562.60
804.12	1550.31
804.30	1499.11
804.48	1482.73
804.65	1538.02
804.83	1572.84
805.01	1595.37
805.18	1546.22
805.36	1521.64
805.53	1501.16
805.71	1538.02
805.88	1433.58
806.06	1505.26
806.24	1589.22
806.41	1488.87
806.59	1499.11
806.76	1490.92
806.94	1587.18
807.12	1472.49
807.29	1562.60
807.47	1521.64
807.64	1636.33
807.82	1591.27
807.99	1478.63
808.17	1462.25
808.35	1578.98
808.52	1513.45
808.70	1611.75
808.87	1411.05
809.05	1527.78
809.22	1540.07
809.40	1433.58
809.58	1488.87
809.75	1447.91
809.93	1368.04
810.10	1497.07
810.28	1550.31
810.45	1482.73
810.63	1554.41
810.80	1507.30
810.98	1595.37
811.15	1441.77
811.33	1587.18
811.51	1406.95
811.68	1472.49
811.86	1441.77
812.03	1521.64
812.21	1484.78
812.38	1486.83
812.56	1521.64
812.73	1488.87
812.91	1556.46
813.08	1566.70
813.26	1521.64
813.43	1619.94
813.61	1611.75
813.78	1681.38
813.96	1578.98
814.13	1497.07
814.31	1529.83
814.48	1406.95
814.66	1515.50
814.83	1521.64
815.01	1597.42
815.18	1581.03
815.36	1554.41
815.53	1556.46
815.71	1554.41
815.88	1529.83
816.06	1546.22
816.23	1529.83
816.41	1470.44
816.58	1466.35
816.76	1775.59
816.93	1476.59
817.11	1544.17
817.28	1529.83
817.46	1581.03
817.63	1554.41
817.81	1581.03
817.98	1464.30
818.16	1466.35
818.33	1548.26
818.51	1589.22
818.68	1351.66
818.86	1533.93
819.03	1525.74
819.21	1599.46
819.38	1554.41
819.55	1540.07
819.73	1578.98
819.90	1468.39
820.08	1570.79
820.25	1554.41
820.43	1578.98
820.60	1513.45
820.78	1570.79
820.95	1497.07
821.12	1578.98
821.30	1472.49
821.47	1554.41
821.65	1583.08
821.82	1550.31
822.00	1443.82
822.17	1501.16
822.35	1488.87
822.52	1638.38
822.69	1509.35
822.87	1546.22
823.04	1476.59
823.22	1517.54
823.39	1447.91
823.56	1564.65
823.74	1490.92
823.91	1531.88
824.09	1581.03
824.26	1439.72
824.44	1474.54
824.61	1644.52
824.78	1597.42
824.96	1515.50
825.13	1603.56
825.31	1499.11
825.48	1472.49
825.65	1546.22
825.83	1474.54
826.00	1513.45
826.18	1497.07
826.35	1505.26
826.52	1529.83
826.70	1490.92
826.87	1556.46
827.04	1538.02
827.22	1435.63
827.39	1509.35
827.57	1562.60
827.74	1488.87
827.91	1417.19
828.09	1548.26
828.26	1488.87
828.43	1521.64
828.61	1564.65
828.78	1546.22
828.96	1644.52
829.13	1531.88
829.30	1497.07
829.48	1456.11
829.65	1513.45
829.82	1472.49
830.00	1488.87
830.17	1415.15
830.34	1529.83
830.52	1466.35
830.69	1501.16
830.86	1456.11
831.04	1515.50
831.21	1548.26
831.38	1513.45
831.56	1505.26
831.73	1550.31
831.90	1507.30
832.08	1513.45
832.25	1578.98
832.42	1546.22
832.60	1531.88
832.77	1521.64
832.94	1523.69
833.12	1497.07
833.29	1462.25
833.46	1472.49
833.64	1499.11
833.81	1456.11
833.98	1611.75
834.16	1476.59
834.33	1589.22
834.50	1497.07
834.67	1488.87
834.85	1572.84
835.02	1570.79
835.19	1525.74
835.37	1482.73
835.54	1472.49
835.71	1550.31
835.89	1535.98
836.06	1621.99
836.23	1497.07
836.40	1476.59
836.58	1644.52
836.75	1589.22
836.92	1548.26
837.10	1472.49
837.27	1490.92
837.44	1515.50
837.61	1538.02
837.79	1515.50
837.96	1411.05
838.13	1572.84
838.30	1513.45
838.48	1425.39
838.65	1578.98
838.82	1525.74
838.99	1476.59
839.17	1564.65
839.34	1488.87
839.51	1570.79
839.69	1425.39
839.86	1542.12
840.03	1599.46
840.20	1431.53
840.37	1570.79
840.55	1488.87
840.72	1472.49
840.89	1447.91
841.06	1607.66
841.24	1525.74
841.41	1562.60
841.58	1570.79
841.75	1619.94
841.93	1597.42
842.10	1484.78
842.27	1507.30
842.44	1521.64
842.62	1529.83
842.79	1673.19
842.96	1507.30
843.13	1505.26
843.30	1507.30
843.48	1529.83
843.65	1628.14
843.82	1652.71
843.99	1531.88
844.16	1447.91
844.34	1574.89
844.51	1529.83
844.68	1507.30
844.85	1531.88
845.02	1449.96
845.20	1505.26
845.37	1474.54
845.54	1611.75
845.71	1538.02
845.88	1562.60
846.06	1578.98
846.23	1409.00
846.40	1548.26
846.57	1546.22
846.74	1546.22
846.91	1562.60
847.09	1474.54
847.26	1546.22
847.43	1636.33
847.60	1523.69
847.77	1505.26
847.94	1538.02
848.12	1497.07
848.29	1531.88
848.46	1439.72
848.63	1488.87
848.80	1472.49
848.97	1538.02
849.15	1611.75
849.32	1488.87
849.49	1474.54
849.66	1554.41
849.83	1497.07
850.00	1533.93
850.17	1480.68
850.35	1554.41
850.52	1505.26
850.69	1513.45
850.86	1533.93
851.03	1540.07
851.20	1497.07
851.37	1521.64
851.55	1480.68
851.72	1480.68
851.89	1595.37
852.06	1538.02
852.23	1482.73
852.40	1546.22
852.57	1505.26
852.74	1439.72
852.92	1406.95
853.09	1425.39
853.26	1529.83
853.43	1488.87
853.60	1591.27
853.77	1525.74
853.94	1497.07
854.11	1562.60
854.28	1873.89
854.45	1605.61
854.63	1570.79
854.80	1488.87
854.97	1595.37
855.14	1503.21
855.31	1591.27
855.48	1435.63
855.65	1476.59
855.82	1513.45
855.99	1423.34
856.16	1439.72
856.33	1603.56
856.50	1501.16
856.68	1439.72
856.85	1505.26
857.02	1538.02
857.19	1439.72
857.36	1581.03
857.53	1482.73
857.70	1538.02
857.87	1495.02
858.04	1435.63
858.21	1509.35
858.38	1566.70
858.55	1603.56
858.72	1548.26
858.89	1611.75
859.06	1574.89
859.23	1521.64
859.40	1564.65
859.58	1490.92
859.75	1472.49
859.92	1587.18
860.09	1578.98
860.26	1472.49
860.43	1505.26
860.60	1480.68
860.77	1464.30
860.94	1423.34
861.11	1570.79
861.28	1521.64
861.45	1546.22
861.62	1529.83
861.79	1550.31
861.96	1423.34
862.13	1546.22
862.30	1509.35
862.47	1433.58
862.64	1689.57
862.81	1472.49
862.98	1515.50
863.15	1505.26
863.32	1521.64
863.49	1570.79
863.66	1531.88
863.83	1529.83
864.00	1409.00
864.17	1480.68
864.34	1484.78
864.51	1542.12
864.68	1509.35
864.85	1447.91
865.02	1480.68
865.19	1538.02
865.36	1488.87
865.53	1497.07
865.70	1538.02
865.87	1472.49
866.04	1480.68
866.21	1521.64
866.38	1603.56
866.55	1447.91
866.72	1497.07
866.89	1509.35
867.06	1515.50
867.23	1456.11
867.40	1542.12
867.57	1542.12
867.73	1542.12
867.90	1619.94
868.07	1640.42
868.24	1439.72
868.41	1570.79
868.58	1505.26
868.75	1431.53
868.92	1603.56
869.09	1521.64
869.26	1497.07
869.43	1581.03
869.60	1449.96
869.77	1578.98
869.94	1472.49
870.11	1609.70
870.28	1501.16
870.45	1521.64
870.61	1554.41
870.78	1517.54
870.95	1515.50
871.12	1562.60
871.29	1593.32
871.46	1595.37
871.63	1513.45
871.80	1464.30
871.97	1521.64
872.14	1628.14
872.31	1454.06
872.47	1525.74
872.64	1523.69
872.81	1521.64
872.98	1529.83
873.15	1509.35
873.32	1558.50
873.49	1587.18
873.66	1525.74
873.83	1501.16
874.00	1578.98
874.16	1468.39
874.33	1505.26
874.50	1468.39
874.67	1523.69
874.84	1472.49
875.01	1507.30
875.18	1439.72
875.35	1466.35
875.51	1574.89
875.68	1570.79
875.85	1578.98
876.02	1599.46
876.19	1603.56
876.36	1564.65
876.53	1550.31
876.69	1521.64
876.86	1562.60
877.03	1529.83
877.20	1488.87
877.37	1554.41
877.54	1415.15
877.71	1548.26
877.87	1447.91
878.04	1564.65
878.21	1456.11
878.38	1525.74
878.55	1566.70
878.72	1505.26
878.88	1484.78
879.05	1611.75
879.22	1591.27
879.39	1523.69
879.56	1570.79
879.73	1488.87
879.89	1515.50
880.06	1599.46
880.23	1533.93
880.40	1474.54
880.57	1611.75
880.74	1505.26
880.90	1439.72
881.07	1521.64
881.24	1527.78
881.41	1488.87
881.58	1449.96
881.74	1550.31
881.91	1476.59
882.08	1497.07
882.25	1636.33
882.42	1406.95
882.58	1775.59
882.75	1476.59
882.92	1540.07
883.09	1513.45
883.26	1628.14
883.42	1591.27
883.59	1558.50
883.76	1497.07
883.93	1538.02
884.09	1466.35
884.26	1556.46
884.43	1656.81
884.60	1501.16
884.77	1621.99
884.93	1562.60
885.10	1529.83
885.27	1595.37
885.44	1564.65
885.60	1652.71
885.77	1626.09
885.94	1562.60
886.11	1548.26
886.27	1492.97
886.44	1611.75
886.61	1589.22
886.78	1505.26
886.94	1533.93
887.11	1587.18
887.28	1488.87
887.45	1492.97
887.61	1578.98
887.78	1529.83
887.95	1474.54
888.12	1521.64
888.28	1554.41
888.45	1572.84
888.62	1562.60
888.78	1556.46
888.95	1570.79
889.12	1564.65
889.29	1513.45
889.45	1505.26
889.62	1605.61
889.79	1540.07
889.95	1406.95
890.12	1538.02
890.29	1480.68
890.46	1595.37
890.62	1597.42
