Comprimento	Intensity
178.13	1261.55
178.35	1261.55
178.57	1261.55
178.78	1284.08
179.00	1275.88
179.22	1478.63
179.44	1443.82
179.66	1482.73
179.87	1517.54
180.09	1456.11
180.31	1546.22
180.53	1431.53
180.75	1484.78
180.96	1490.92
181.18	1394.67
181.40	1476.59
181.62	1409.00
181.84	1484.78
182.05	1490.92
182.27	1423.34
182.49	1431.53
182.71	1351.66
182.92	1533.93
183.14	1513.45
183.36	1482.73
183.58	1452.01
183.80	1574.89
184.01	1488.87
184.23	1507.30
184.45	1546.22
184.67	1425.39
184.89	1417.19
185.10	1538.02
185.32	1513.45
185.54	1501.16
185.76	1472.49
185.97	1472.49
186.19	1521.64
186.41	1449.96
186.63	1464.30
186.84	1406.95
187.06	1431.53
187.28	1619.94
187.50	1406.95
187.72	1548.26
187.93	1492.97
188.15	1445.87
188.37	1419.24
188.59	1441.77
188.80	1538.02
189.02	1423.34
189.24	1456.11
189.46	1482.73
189.67	1562.60
189.89	1484.78
190.11	1441.77
190.33	1521.64
190.54	1538.02
190.76	1472.49
190.98	1447.91
191.20	1482.73
191.41	1484.78
191.63	1456.11
191.85	1458.15
192.07	1433.58
192.28	1486.83
192.50	1480.68
192.72	1406.95
192.94	1621.99
193.15	1390.57
193.37	1591.27
193.59	1595.37
193.81	1603.56
194.02	1464.30
194.24	1497.07
194.46	1452.01
194.67	1456.11
194.89	1456.11
195.11	1570.79
195.33	1538.02
195.54	1548.26
195.76	1497.07
195.98	1409.00
196.20	1417.19
196.41	1449.96
196.63	1576.94
196.85	1492.97
197.06	1374.19
197.28	1540.07
197.50	1337.32
197.72	1417.19
197.93	1466.35
198.15	1568.74
198.37	1413.10
198.58	1456.11
198.80	1505.26
199.02	1572.84
199.24	1456.11
199.45	1505.26
199.67	1392.62
199.89	1427.43
200.10	1423.34
200.32	1390.57
200.54	1327.08
200.76	1513.45
200.97	1456.11
201.19	1400.81
201.41	1488.87
201.62	1439.72
201.84	1501.16
202.06	1480.68
202.28	1435.63
202.49	1533.93
202.71	1591.27
202.93	1499.11
203.14	1464.30
203.36	1484.78
203.58	1441.77
203.79	1431.53
204.01	1525.74
204.23	1456.11
204.44	1447.91
204.66	1497.07
204.88	1564.65
205.10	1423.34
205.31	1484.78
205.53	1464.30
205.75	1474.54
205.96	1488.87
206.18	1464.30
206.40	1402.86
206.61	1396.71
206.83	1456.11
207.05	1449.96
207.26	1425.39
207.48	1447.91
207.70	1460.20
207.91	1488.87
208.13	1392.62
208.35	1458.15
208.56	1406.95
208.78	1505.26
209.00	1464.30
209.21	1464.30
209.43	1505.26
209.65	1511.40
209.86	1425.39
210.08	1439.72
210.30	1492.97
210.51	1554.41
210.73	1406.95
210.95	1501.16
211.16	1433.58
211.38	1464.30
211.60	1468.39
211.81	1484.78
212.03	1529.83
212.25	1521.64
212.46	1464.30
212.68	1466.35
212.90	1431.53
213.11	1398.76
213.33	1554.41
213.55	1439.72
213.76	1521.64
213.98	1423.34
214.20	1433.58
214.41	1441.77
214.63	1521.64
214.84	1490.92
215.06	1505.26
215.28	1482.73
215.49	1490.92
215.71	1525.74
215.93	1533.93
216.14	1452.01
216.36	1466.35
216.58	1404.91
216.79	1482.73
217.01	1447.91
217.22	1423.34
217.44	1570.79
217.66	1513.45
217.87	1556.46
218.09	1419.24
218.31	1435.63
218.52	1558.50
218.74	1447.91
218.95	1488.87
219.17	1456.11
219.39	1443.82
219.60	1578.98
219.82	1497.07
220.04	1548.26
220.25	1415.15
220.47	1509.35
220.68	1480.68
220.90	1431.53
221.12	1488.87
221.33	1386.47
221.55	1456.11
221.77	1423.34
221.98	1464.30
222.20	1466.35
222.41	1533.93
222.63	1513.45
222.85	1464.30
223.06	1447.91
223.28	1431.53
223.49	1431.53
223.71	1447.91
223.93	1464.30
224.14	1507.30
224.36	1521.64
224.57	1474.54
224.79	1492.97
225.01	1423.34
225.22	1460.20
225.44	1394.67
225.65	1447.91
225.87	1548.26
226.09	1460.20
226.30	1540.07
226.52	1443.82
226.73	1325.04
226.95	1562.60
227.17	1515.50
227.38	1435.63
227.60	1546.22
227.81	1415.15
228.03	1409.00
228.24	1554.41
228.46	1468.39
228.68	1490.92
228.89	1390.57
229.11	1427.43
229.32	1472.49
229.54	1447.91
229.75	1497.07
229.97	1472.49
230.19	1406.95
230.40	1482.73
230.62	1406.95
230.83	1488.87
231.05	1531.88
231.26	1458.15
231.48	1431.53
231.70	1556.46
231.91	1439.72
232.13	1499.11
232.34	1497.07
232.56	1394.67
232.77	1488.87
232.99	1472.49
233.21	1603.56
233.42	1452.01
233.64	1521.64
233.85	1366.00
234.07	1480.68
234.28	1669.09
234.50	1488.87
234.71	1484.78
234.93	1562.60
235.15	1423.34
235.36	1417.19
235.58	1554.41
235.79	1402.86
236.01	1480.68
236.22	1505.26
236.44	1554.41
236.65	1415.15
236.87	1523.69
237.08	1447.91
237.30	1488.87
237.52	1415.15
237.73	1425.39
237.95	1398.76
238.16	1374.19
238.38	1548.26
238.59	1458.15
238.81	1499.11
239.02	1439.72
239.24	1443.82
239.45	1357.80
239.67	1423.34
239.88	1546.22
240.10	1517.54
240.31	1423.34
240.53	1468.39
240.74	1501.16
240.96	1497.07
241.18	1521.64
241.39	1431.53
241.61	1472.49
241.82	1484.78
242.04	1456.11
242.25	1476.59
242.47	1415.15
242.68	1484.78
242.90	1419.24
243.11	1384.43
243.33	1445.87
243.54	1597.42
243.76	1415.15
243.97	1636.33
244.19	1400.81
244.40	1449.96
244.62	1378.28
244.83	1439.72
245.05	1384.43
245.26	1474.54
245.48	1443.82
245.69	1490.92
245.91	1439.72
246.12	1400.81
246.34	1533.93
246.55	1435.63
246.77	1439.72
246.98	1441.77
247.20	1480.68
247.41	1497.07
247.63	1538.02
247.84	1447.91
248.06	1570.79
248.27	1349.61
248.49	1417.19
248.70	1443.82
248.92	1464.30
249.13	1460.20
249.35	1435.63
249.56	1458.15
249.78	1374.19
249.99	1497.07
250.21	1482.73
250.42	1456.11
250.64	1472.49
250.85	1447.91
251.06	1515.50
251.28	1482.73
251.49	1480.68
251.71	1513.45
251.92	1501.16
252.14	1472.49
252.35	1431.53
252.57	1439.72
252.78	1480.68
253.00	1472.49
253.21	1394.67
253.43	1466.35
253.64	1409.00
253.86	1439.72
254.07	1439.72
254.28	1390.57
254.50	1533.93
254.71	1425.39
254.93	1425.39
255.14	1472.49
255.36	1415.15
255.57	1521.64
255.79	1439.72
256.00	1476.59
256.22	1513.45
256.43	1538.02
256.64	1529.83
256.86	1562.60
257.07	1456.11
257.29	1406.95
257.50	1333.23
257.72	1392.62
257.93	1341.42
258.15	1490.92
258.36	1376.24
258.57	1546.22
258.79	1474.54
259.00	1513.45
259.22	1456.11
259.43	1417.19
259.65	1480.68
259.86	1433.58
260.08	1439.72
260.29	1652.71
260.50	1470.44
260.72	1767.40
260.93	1464.30
261.15	1439.72
261.36	1531.88
261.58	1476.59
261.79	1468.39
262.00	1425.39
262.22	1540.07
262.43	1474.54
262.65	1400.81
262.86	1513.45
263.07	1439.72
263.29	1523.69
263.50	1527.78
263.72	1488.87
263.93	1427.43
264.15	1488.87
264.36	1382.38
264.57	1505.26
264.79	1529.83
265.00	1464.30
265.22	1540.07
265.43	1492.97
265.64	1439.72
265.86	1341.42
266.07	1374.19
266.29	1521.64
266.50	1409.00
266.71	1546.22
266.93	1507.30
267.14	1497.07
267.36	1505.26
267.57	1482.73
267.78	1464.30
268.00	1531.88
268.21	1548.26
268.43	1497.07
268.64	1456.11
268.85	1402.86
269.07	1376.24
269.28	1497.07
269.50	1366.00
269.71	1464.30
269.92	1521.64
270.14	1523.69
270.35	1456.11
270.56	1488.87
270.78	1472.49
270.99	1433.58
271.21	1441.77
271.42	1488.87
271.63	1480.68
271.85	1474.54
272.06	1447.91
272.27	1439.72
272.49	1488.87
272.70	1439.72
272.92	1554.41
273.13	1425.39
273.34	1480.68
273.56	1417.19
273.77	1464.30
273.98	1488.87
274.20	1501.16
274.41	1449.96
274.63	1456.11
274.84	1343.47
275.05	1460.20
275.27	1445.87
275.48	1529.83
275.69	1431.53
275.91	1439.72
276.12	1509.35
276.33	1476.59
276.55	1497.07
276.76	1433.58
276.97	1572.84
277.19	1419.24
277.40	1423.34
277.61	1507.30
277.83	1505.26
278.04	1415.15
278.26	1472.49
278.47	1458.15
278.68	1576.94
278.90	1415.15
279.11	1398.76
279.32	1572.84
279.54	1562.60
279.75	1529.83
279.96	1515.50
280.18	1527.78
280.39	1538.02
280.60	1433.58
280.82	1529.83
281.03	1431.53
281.24	1554.41
281.46	1415.15
281.67	1449.96
281.88	1384.43
282.10	1476.59
282.31	1490.92
282.52	1538.02
282.74	1378.28
282.95	1406.95
283.16	1415.15
283.37	1425.39
283.59	1409.00
283.80	1480.68
284.01	1570.79
284.23	1394.67
284.44	1488.87
284.65	1613.80
284.87	1464.30
285.08	1474.54
285.29	1538.02
285.51	1513.45
285.72	1384.43
285.93	1464.30
286.15	1411.05
286.36	1411.05
286.57	1531.88
286.78	1394.67
287.00	1398.76
287.21	1472.49
287.42	1472.49
287.64	1423.34
287.85	1546.22
288.06	1488.87
288.28	1497.07
288.49	1349.61
288.70	1474.54
288.91	1464.30
289.13	1570.79
289.34	1548.26
289.55	1413.10
289.77	1449.96
289.98	1499.11
290.19	1605.61
290.40	1415.15
290.62	1546.22
290.83	1449.96
291.04	1423.34
291.26	1384.43
291.47	1441.77
291.68	1589.22
291.89	1415.15
292.11	1554.41
292.32	1439.72
292.53	1523.69
292.74	1435.63
292.96	1406.95
293.17	1406.95
293.38	1466.35
293.60	1562.60
293.81	1366.00
294.02	1456.11
294.23	1497.07
294.45	1542.12
294.66	1466.35
294.87	1554.41
295.08	1398.76
295.30	1523.69
295.51	1488.87
295.72	1521.64
295.93	1554.41
296.15	1476.59
296.36	1529.83
296.57	1548.26
296.78	1570.79
297.00	1490.92
297.21	1597.42
297.42	1636.33
297.63	1521.64
297.85	1562.60
298.06	1517.54
298.27	1583.08
298.48	1466.35
298.70	1480.68
298.91	1611.75
299.12	1447.91
299.33	1488.87
299.55	1425.39
299.76	1406.95
299.97	1505.26
300.18	1447.91
300.40	1409.00
300.61	1482.73
300.82	1441.77
301.03	1449.96
301.24	1439.72
301.46	1427.43
301.67	1443.82
301.88	1402.86
302.09	1554.41
302.31	1486.83
302.52	1558.50
302.73	1718.25
302.94	1558.50
303.15	1515.50
303.37	1507.30
303.58	1443.82
303.79	1480.68
304.00	1556.46
304.22	1419.24
304.43	1570.79
304.64	1497.07
304.85	1452.01
305.06	1499.11
305.28	1454.06
305.49	1525.74
305.70	1531.88
305.91	1439.72
306.12	1578.98
306.34	1382.38
306.55	1497.07
306.76	1546.22
306.97	1572.84
307.18	1431.53
307.40	1505.26
307.61	1513.45
307.82	1499.11
308.03	1589.22
308.24	1531.88
308.46	1458.15
308.67	1521.64
308.88	1570.79
309.09	1656.81
309.30	1562.60
309.52	1529.83
309.73	1578.98
309.94	1417.19
310.15	1480.68
310.36	1613.80
310.57	1490.92
310.79	1607.66
311.00	1490.92
311.21	1447.91
311.42	1619.94
311.63	1617.90
311.85	1513.45
312.06	1708.01
312.27	1877.99
312.48	2176.99
312.69	2512.86
312.90	3110.86
313.12	3545.03
313.33	4003.78
313.54	4192.19
313.75	3891.14
313.96	3684.30
314.17	2996.18
314.39	2443.23
314.60	2054.11
314.81	1824.74
315.02	1513.45
315.23	1564.65
315.44	1566.70
315.65	1583.08
315.87	1488.87
316.08	1497.07
316.29	1443.82
316.50	1464.30
316.71	1513.45
316.92	1513.45
317.14	1433.58
317.35	1509.35
317.56	1529.83
317.77	1570.79
317.98	1468.39
318.19	1525.74
318.40	1505.26
318.62	1591.27
318.83	1472.49
319.04	1570.79
319.25	1447.91
319.46	1574.89
319.67	1464.30
319.88	1497.07
320.09	1507.30
320.31	1538.02
320.52	1447.91
320.73	1488.87
320.94	1443.82
321.15	1464.30
321.36	1490.92
321.57	1560.55
321.78	1517.54
322.00	1480.68
322.21	1452.01
322.42	1433.58
322.63	1564.65
322.84	1447.91
323.05	1439.72
323.26	1423.34
323.47	1531.88
323.69	1515.50
323.90	1443.82
324.11	1398.76
324.32	1472.49
324.53	1449.96
324.74	1392.62
324.95	1540.07
325.16	1439.72
325.37	1402.86
325.59	1392.62
325.80	1458.15
326.01	1400.81
326.22	1513.45
326.43	1531.88
326.64	1595.37
326.85	1472.49
327.06	1517.54
327.27	1472.49
327.48	1521.64
327.69	1578.98
327.91	1460.20
328.12	1452.01
328.33	1411.05
328.54	1476.59
328.75	1488.87
328.96	1533.93
329.17	1464.30
329.38	1480.68
329.59	1513.45
329.80	1826.79
330.01	1564.65
330.23	1464.30
330.44	1521.64
330.65	1464.30
330.86	1484.78
331.07	1509.35
331.28	1523.69
331.49	1417.19
331.70	1464.30
331.91	1357.80
332.12	1464.30
332.33	1505.26
332.54	1564.65
332.75	1570.79
332.96	1425.39
333.17	1447.91
333.39	1464.30
333.60	1431.53
333.81	1578.98
334.02	1482.73
334.23	1701.86
334.44	1769.44
334.65	1802.21
334.86	1818.60
335.07	1824.74
335.28	1685.48
335.49	1712.10
335.70	1540.07
335.91	1488.87
336.12	1497.07
336.33	1611.75
336.54	1515.50
336.75	1468.39
336.96	1488.87
337.17	1488.87
337.39	1384.43
337.60	1533.93
337.81	1564.65
338.02	1441.77
338.23	1497.07
338.44	1423.34
338.65	1466.35
338.86	1497.07
339.07	1482.73
339.28	1538.02
339.49	1564.65
339.70	1538.02
339.91	1488.87
340.12	1529.83
340.33	1456.11
340.54	1466.35
340.75	1509.35
340.96	1411.05
341.17	1480.68
341.38	1480.68
341.59	1554.41
341.80	1591.27
342.01	1439.72
342.22	1406.95
342.43	1523.69
342.64	1431.53
342.85	1472.49
343.06	1546.22
343.27	1384.43
343.48	1490.92
343.69	1542.12
343.90	1423.34
344.11	1447.91
344.32	1505.26
344.53	1513.45
344.74	1554.41
344.95	1439.72
345.16	1431.53
345.37	1458.15
345.58	1402.86
345.79	1464.30
346.00	1488.87
346.21	1452.01
346.42	1452.01
346.63	1531.88
346.84	1488.87
347.05	1449.96
347.26	1488.87
347.47	1435.63
347.68	1476.59
347.89	1441.77
348.10	1515.50
348.31	1554.41
348.52	1427.43
348.73	1466.35
348.94	1458.15
349.15	1585.13
349.36	1497.07
349.57	1419.24
349.78	1492.97
349.99	1419.24
350.20	1523.69
350.41	1415.15
350.62	1411.05
350.83	1482.73
351.04	1460.20
351.25	1490.92
351.46	1464.30
351.67	1394.67
351.88	1398.76
352.09	1476.59
352.30	1529.83
352.50	1468.39
352.71	1497.07
352.92	1497.07
353.13	1458.15
353.34	1447.91
353.55	1445.87
353.76	1456.11
353.97	1538.02
354.18	1447.91
354.39	1533.93
354.60	1554.41
354.81	1546.22
355.02	1490.92
355.23	1515.50
355.44	1392.62
355.65	1480.68
355.86	1546.22
356.07	1499.11
356.28	1546.22
356.48	1550.31
356.69	1464.30
356.90	1458.15
357.11	1431.53
357.32	1490.92
357.53	1531.88
357.74	1521.64
357.95	1570.79
358.16	1476.59
358.37	1464.30
358.58	1523.69
358.79	1464.30
359.00	1554.41
359.21	1538.02
359.41	1587.18
359.62	1628.14
359.83	1505.26
360.04	1392.62
360.25	1550.31
360.46	1599.46
360.67	1488.87
360.88	1456.11
361.09	1578.98
361.30	1501.16
361.51	1554.41
361.72	1550.31
361.92	1554.41
362.13	1480.68
362.34	1554.41
362.55	1501.16
362.76	1515.50
362.97	1632.23
363.18	1572.84
363.39	1599.46
363.60	1578.98
363.81	1587.18
364.01	1701.86
364.22	1910.75
364.43	2529.24
364.64	4372.41
364.85	7526.29
365.06	11624.27
365.27	14573.35
365.48	16242.44
365.69	16660.23
365.89	15218.46
366.10	12715.84
366.31	10106.73
366.52	7905.16
366.73	5855.14
366.94	4571.07
367.15	3405.77
367.36	2742.23
367.57	2332.64
367.77	2090.98
367.98	1873.89
368.19	1720.29
368.40	1662.95
368.61	1603.56
368.82	1497.07
369.03	1513.45
369.23	1660.90
369.44	1513.45
369.65	1488.87
369.86	1611.75
370.07	1513.45
370.28	1556.46
370.49	1542.12
370.70	1554.41
370.90	1523.69
371.11	1497.07
371.32	1464.30
371.53	1490.92
371.74	1433.58
371.95	1538.02
372.16	1449.96
372.36	1492.97
372.57	1478.63
372.78	1488.87
372.99	1423.34
373.20	1398.76
373.41	1431.53
373.61	1550.31
373.82	1517.54
374.03	1464.30
374.24	1497.07
374.45	1564.65
374.66	1550.31
374.86	1564.65
375.07	1490.92
375.28	1546.22
375.49	1492.97
375.70	1490.92
375.91	1484.78
376.11	1472.49
376.32	1529.83
376.53	1468.39
376.74	1495.02
376.95	1857.51
377.16	1542.12
377.36	1521.64
377.57	1652.71
377.78	1474.54
377.99	1515.50
378.20	1488.87
378.40	1562.60
378.61	1513.45
378.82	1527.78
379.03	1505.26
379.24	1605.61
379.45	1431.53
379.65	1366.00
379.86	1482.73
380.07	1435.63
380.28	1456.11
380.49	1505.26
380.69	1671.14
380.90	1640.42
381.11	1488.87
381.32	1480.68
381.53	1587.18
381.73	1533.93
381.94	1482.73
382.15	1550.31
382.36	1472.49
382.57	1531.88
382.77	1433.58
382.98	1476.59
383.19	1468.39
383.40	1460.20
383.60	1597.42
383.81	1517.54
384.02	1480.68
384.23	1488.87
384.44	1447.91
384.64	1466.35
384.85	1558.50
385.06	1558.50
385.27	1435.63
385.48	1447.91
385.68	1472.49
385.89	1402.86
386.10	1513.45
386.31	1417.19
386.51	1480.68
386.72	1398.76
386.93	1507.30
387.14	1546.22
387.34	1517.54
387.55	1449.96
387.76	1521.64
387.97	1468.39
388.17	1480.68
388.38	1505.26
388.59	1505.26
388.80	1441.77
389.01	1521.64
389.21	1529.83
389.42	1562.60
389.63	1505.26
389.84	1386.47
390.04	1488.87
390.25	1556.46
390.46	1531.88
390.67	1515.50
390.87	1411.05
391.08	1513.45
391.29	1521.64
391.49	1603.56
391.70	1456.11
391.91	1484.78
392.12	1472.49
392.32	1400.81
392.53	1544.17
392.74	1497.07
392.95	1441.77
393.15	1562.60
393.36	1474.54
393.57	1515.50
393.78	1480.68
393.98	1517.54
394.19	1497.07
394.40	1624.04
394.60	1495.02
394.81	1578.98
395.02	1406.95
395.23	1538.02
395.43	1556.46
395.64	1589.22
395.85	1419.24
396.06	1540.07
396.26	1566.70
396.47	1527.78
396.68	1425.39
396.88	1546.22
397.09	1447.91
397.30	1558.50
397.50	1484.78
397.71	1509.35
397.92	1566.70
398.13	1538.02
398.33	1431.53
398.54	1562.60
398.75	1419.24
398.95	1619.94
399.16	1599.46
399.37	1464.30
399.57	1554.41
399.78	1538.02
399.99	1550.31
400.20	1660.90
400.40	1390.57
400.61	1464.30
400.82	1456.11
401.02	1474.54
401.23	1548.26
401.44	1513.45
401.64	1564.65
401.85	1591.27
402.06	1548.26
402.26	1630.18
402.47	1521.64
402.68	1644.52
402.88	1466.35
403.09	1562.60
403.30	1542.12
403.50	1538.02
403.71	1644.52
403.92	1646.57
404.12	1959.91
404.33	3151.82
404.54	4593.59
404.74	5810.09
404.95	6803.35
405.16	7202.71
405.36	6735.77
405.57	5986.21
405.78	5052.34
405.98	4020.16
406.19	3389.39
406.40	2826.20
406.60	2275.29
406.81	1832.93
407.02	1722.34
407.22	1599.46
407.43	1636.33
407.64	1753.06
407.84	1775.59
408.05	1875.94
408.26	1869.80
408.46	1869.80
408.67	1939.43
408.87	1726.44
409.08	1654.76
409.29	1753.06
409.49	1521.64
409.70	1587.18
409.91	1595.37
410.11	1546.22
410.32	1529.83
410.53	1398.76
410.73	1388.52
410.94	1556.46
411.14	1447.91
411.35	1603.56
411.56	1497.07
411.76	1570.79
411.97	1515.50
412.18	1538.02
412.38	1349.61
412.59	1468.39
412.79	1443.82
413.00	1484.78
413.21	1499.11
413.41	1505.26
413.62	1460.20
413.82	1521.64
414.03	1562.60
414.24	1574.89
414.44	1366.00
414.65	1492.97
414.86	1441.77
415.06	1607.66
415.27	1554.41
415.47	1578.98
415.68	1607.66
415.89	1652.71
416.09	1681.38
416.30	1669.09
416.50	1679.33
416.71	1751.01
416.92	1693.67
417.12	1644.52
417.33	1548.26
417.53	1490.92
417.74	1509.35
417.94	1587.18
418.15	1613.80
418.36	1513.45
418.56	1419.24
418.77	1587.18
418.97	1644.52
419.18	1638.38
419.39	1540.07
419.59	1597.42
419.80	1646.57
420.00	1644.52
420.21	1677.29
420.41	1841.12
420.62	1794.02
420.83	1669.09
421.03	1701.86
421.24	1693.67
421.44	1628.14
421.65	1587.18
421.85	1644.52
422.06	1525.74
422.27	1587.18
422.47	1513.45
422.68	1560.55
422.88	1523.69
423.09	1460.20
423.29	1529.83
423.50	1521.64
423.70	1576.94
423.91	1572.84
424.12	1472.49
424.32	1546.22
424.53	1497.07
424.73	1488.87
424.94	1460.20
425.14	1464.30
425.35	1589.22
425.55	1554.41
425.76	1597.42
425.96	1572.84
426.17	1636.33
426.37	1642.47
426.58	1591.27
426.79	1632.23
426.99	1703.91
427.20	1687.53
427.40	1644.52
427.61	1665.00
427.81	1630.18
428.02	1603.56
428.22	1568.74
428.43	1581.03
428.63	1447.91
428.84	1566.70
429.04	1505.26
429.25	1513.45
429.45	1531.88
429.66	1529.83
429.86	1505.26
430.07	1546.22
430.27	1587.18
430.48	1636.33
430.68	1538.02
430.89	1591.27
431.09	1497.07
431.30	1566.70
431.50	1560.55
431.71	1556.46
431.91	1497.07
432.12	1546.22
432.32	1505.26
432.53	1513.45
432.73	1515.50
432.94	1497.07
433.14	1591.27
433.35	1542.12
433.55	1624.04
433.76	1529.83
433.96	1660.90
434.17	1761.25
434.37	1701.86
434.58	1775.59
434.78	1865.70
434.99	2037.73
435.19	2734.04
435.40	5027.76
435.60	9328.50
435.81	13498.16
436.01	16668.42
436.22	19246.81
436.42	17905.39
436.63	15709.97
436.83	13444.91
437.04	11196.25
437.24	8902.52
437.45	6963.09
437.65	5169.07
437.86	3899.33
438.06	2785.24
438.26	2201.57
438.47	1873.89
438.67	1685.48
438.88	1701.86
439.08	1597.42
439.29	1630.18
439.49	1554.41
439.70	1605.61
439.90	1554.41
440.11	1644.52
440.31	1570.79
440.52	1540.07
440.72	1562.60
440.92	1492.97
441.13	1515.50
441.33	1531.88
441.54	1578.98
441.74	1415.15
441.95	1538.02
442.15	1597.42
442.36	1642.47
442.56	1499.11
442.76	1456.11
442.97	1472.49
443.17	1521.64
443.38	1544.17
443.58	1529.83
443.79	1497.07
443.99	1533.93
444.19	1587.18
444.40	1464.30
444.60	1474.54
444.81	1472.49
445.01	1501.16
445.22	1409.00
445.42	1521.64
445.62	1505.26
445.83	1464.30
446.03	1505.26
446.24	1513.45
446.44	1521.64
446.64	1409.00
446.85	1540.07
447.05	1521.64
447.26	1433.58
447.46	1513.45
447.67	1431.53
447.87	1507.30
448.07	1556.46
448.28	1460.20
448.48	1472.49
448.69	1542.12
448.89	1449.96
449.09	1443.82
449.30	1472.49
449.50	1400.81
449.71	1478.63
449.91	1449.96
450.11	1443.82
450.32	1513.45
450.52	1390.57
450.72	1497.07
450.93	1589.22
451.13	1513.45
451.34	1513.45
451.54	1529.83
451.74	1507.30
451.95	1562.60
452.15	1449.96
452.36	1488.87
452.56	1488.87
452.76	1509.35
452.97	1447.91
453.17	1501.16
453.37	1431.53
453.58	1392.62
453.78	1490.92
453.98	1492.97
454.19	1546.22
454.39	1431.53
454.60	1411.05
454.80	1570.79
455.00	1605.61
455.21	1406.95
455.41	1529.83
455.61	1542.12
455.82	1361.90
456.02	1417.19
456.22	1480.68
456.43	1484.78
456.63	1548.26
456.84	1452.01
457.04	1591.27
457.24	1464.30
457.45	1460.20
457.65	1525.74
457.85	1505.26
458.06	1423.34
458.26	1480.68
458.46	1490.92
458.67	1523.69
458.87	1597.42
459.07	1439.72
459.28	1542.12
459.48	1452.01
459.68	1497.07
459.89	1400.81
460.09	1499.11
460.29	1509.35
460.50	1447.91
460.70	1505.26
460.90	1540.07
461.11	1488.87
461.31	1472.49
461.51	1443.82
461.72	1572.84
461.92	1456.11
462.12	1556.46
462.32	1562.60
462.53	1542.12
462.73	1933.28
462.93	1497.07
463.14	1613.80
463.34	1505.26
463.54	1497.07
463.75	1538.02
463.95	1415.15
464.15	1619.94
464.36	1513.45
464.56	1570.79
464.76	1482.73
464.96	1529.83
465.17	1415.15
465.37	1472.49
465.57	1581.03
465.78	1564.65
465.98	1490.92
466.18	1472.49
466.39	1447.91
466.59	1474.54
466.79	1433.58
466.99	1480.68
467.20	1425.39
467.40	1488.87
467.60	1488.87
467.81	1431.53
468.01	1634.28
468.21	1439.72
468.41	1513.45
468.62	1613.80
468.82	1472.49
469.02	1507.30
469.22	1402.86
469.43	1439.72
469.63	1480.68
469.83	1472.49
470.04	1525.74
470.24	1525.74
470.44	1538.02
470.64	1517.54
470.85	1521.64
471.05	1484.78
471.25	1513.45
471.45	1472.49
471.66	1591.27
471.86	1505.26
472.06	1431.53
472.26	1433.58
472.47	1531.88
472.67	1548.26
472.87	1488.87
473.07	1480.68
473.28	1458.15
473.48	1595.37
473.68	1548.26
473.88	1497.07
474.09	1521.64
474.29	1488.87
474.49	1507.30
474.69	1423.34
474.90	1390.57
475.10	1538.02
475.30	1548.26
475.50	1599.46
475.70	1466.35
475.91	1415.15
476.11	1480.68
476.31	1611.75
476.51	1531.88
476.72	1480.68
476.92	1452.01
477.12	1548.26
477.32	1423.34
477.53	1505.26
477.73	1472.49
477.93	1466.35
478.13	1472.49
478.33	1456.11
478.54	1476.59
478.74	1597.42
478.94	1540.07
479.14	1499.11
479.34	1501.16
479.55	1460.20
479.75	1458.15
479.95	1546.22
480.15	1525.74
480.35	1529.83
480.56	1587.18
480.76	1566.70
480.96	1476.59
481.16	1540.07
481.36	1542.12
481.57	1411.05
481.77	1578.98
481.97	1488.87
482.17	1466.35
482.37	1466.35
482.58	1497.07
482.78	1466.35
482.98	1505.26
483.18	1423.34
483.38	1499.11
483.58	1468.39
483.79	1540.07
483.99	1456.11
484.19	1468.39
484.39	1472.49
484.59	1472.49
484.80	1482.73
485.00	1529.83
485.20	1529.83
485.40	1558.50
485.60	1474.54
485.80	1492.97
486.01	1480.68
486.21	1527.78
486.41	1634.28
486.61	1652.71
486.81	1550.31
487.01	1447.91
487.22	1587.18
487.42	1574.89
487.62	1497.07
487.82	1566.70
488.02	1546.22
488.22	1538.02
488.42	1564.65
488.63	1562.60
488.83	1482.73
489.03	1439.72
489.23	1646.57
489.43	1507.30
489.63	1529.83
489.83	1519.59
490.04	1558.50
490.24	1554.41
490.44	1447.91
490.64	1447.91
490.84	1460.20
491.04	1566.70
491.24	1538.02
491.44	1529.83
491.65	1656.81
491.85	1570.79
492.05	1685.48
492.25	1562.60
492.45	1640.42
492.65	1603.56
492.85	1531.88
493.05	1603.56
493.26	1562.60
493.46	1546.22
493.66	1562.60
493.86	1439.72
494.06	1497.07
494.26	1578.98
494.46	1578.98
494.66	1466.35
494.86	1556.46
495.07	1464.30
495.27	1460.20
495.47	1490.92
495.67	1521.64
495.87	1546.22
496.07	1431.53
496.27	1513.45
496.47	1578.98
496.67	1484.78
496.87	1472.49
497.08	1480.68
497.28	1529.83
497.48	1515.50
497.68	1587.18
497.88	1554.41
498.08	1466.35
498.28	1562.60
498.48	1456.11
498.68	1490.92
498.88	1497.07
499.08	1521.64
499.29	1497.07
499.49	1507.30
499.69	1505.26
499.89	1437.67
500.09	1433.58
500.29	1521.64
500.49	1517.54
500.69	1605.61
500.89	1509.35
501.09	1478.63
501.29	1644.52
501.49	1433.58
501.69	1449.96
501.89	1521.64
502.09	1533.93
502.30	1464.30
502.50	1546.22
502.70	1607.66
502.90	1597.42
503.10	1460.20
503.30	1435.63
503.50	1488.87
503.70	1505.26
503.90	1525.74
504.10	1515.50
504.30	1529.83
504.50	1521.64
504.70	1499.11
504.90	1468.39
505.10	1472.49
505.30	1515.50
505.50	1529.83
505.70	1521.64
505.90	1480.68
506.10	1531.88
506.30	1464.30
506.50	1509.35
506.70	1554.41
506.90	1585.13
507.11	1480.68
507.31	1521.64
507.51	1447.91
507.71	1595.37
507.91	1439.72
508.11	1529.83
508.31	1513.45
508.51	1427.43
508.71	1480.68
508.91	1460.20
509.11	1484.78
509.31	1513.45
509.51	1419.24
509.71	1578.98
509.91	1566.70
510.11	1417.19
510.31	1490.92
510.51	1488.87
510.71	1525.74
510.91	1480.68
511.11	1562.60
511.31	1558.50
511.51	1466.35
511.71	1447.91
511.91	1513.45
512.11	1476.59
512.31	1417.19
512.51	1447.91
512.71	1501.16
512.91	1468.39
513.11	1476.59
513.31	1521.64
513.51	1482.73
513.71	1427.43
513.91	1472.49
514.11	1538.02
514.31	1509.35
514.51	1613.80
514.71	1525.74
514.90	1505.26
515.10	1431.53
515.30	1466.35
515.50	1458.15
515.70	1548.26
515.90	1538.02
516.10	1523.69
516.30	1490.92
516.50	1472.49
516.70	1505.26
516.90	1441.77
517.10	1415.15
517.30	1542.12
517.50	1488.87
517.70	1423.34
517.90	1499.11
518.10	1501.16
518.30	1648.61
518.50	1546.22
518.70	1540.07
518.90	1490.92
519.10	1449.96
519.30	1566.70
519.50	1505.26
519.69	1603.56
519.89	1456.11
520.09	1513.45
520.29	1548.26
520.49	1521.64
520.69	1505.26
520.89	1480.68
521.09	1558.50
521.29	1767.40
521.49	1431.53
521.69	1548.26
521.89	1578.98
522.09	1533.93
522.29	1488.87
522.48	1587.18
522.68	1497.07
522.88	1538.02
523.08	1669.09
523.28	1572.84
523.48	1521.64
523.68	1464.30
523.88	1562.60
524.08	1480.68
524.28	1554.41
524.48	1554.41
524.68	1466.35
524.87	1574.89
525.07	1480.68
525.27	1538.02
525.47	1533.93
525.67	1449.96
525.87	1433.58
526.07	1538.02
526.27	1468.39
526.47	1501.16
526.67	1538.02
526.86	1439.72
527.06	1509.35
527.26	1501.16
527.46	1531.88
527.66	1587.18
527.86	1490.92
528.06	1480.68
528.26	1599.46
528.46	1419.24
528.65	1570.79
528.85	1521.64
529.05	1476.59
529.25	1398.76
529.45	1505.26
529.65	1492.97
529.85	1529.83
530.05	1441.77
530.24	1665.00
530.44	1466.35
530.64	1566.70
530.84	1456.11
531.04	1480.68
531.24	1529.83
531.44	1488.87
531.63	1507.30
531.83	1587.18
532.03	1556.46
532.23	1515.50
532.43	1572.84
532.63	1505.26
532.83	1529.83
533.02	1529.83
533.22	1533.93
533.42	1488.87
533.62	1406.95
533.82	1472.49
534.02	1515.50
534.22	1546.22
534.41	1538.02
534.61	1492.97
534.81	1578.98
535.01	1540.07
535.21	1509.35
535.41	1560.55
535.60	1523.69
535.80	1499.11
536.00	1433.58
536.20	1542.12
536.40	1466.35
536.60	1499.11
536.79	1542.12
536.99	1499.11
537.19	1587.18
537.39	1538.02
537.59	1515.50
537.78	1419.24
537.98	1587.18
538.18	1521.64
538.38	1619.94
538.58	1529.83
538.77	1619.94
538.97	1415.15
539.17	1605.61
539.37	1533.93
539.57	1529.83
539.77	1603.56
539.96	1497.07
540.16	1578.98
540.36	1447.91
540.56	1558.50
540.76	1505.26
540.95	1587.18
541.15	1538.02
541.35	1544.17
541.55	1628.14
541.74	1515.50
541.94	1636.33
542.14	1591.27
542.34	1538.02
542.54	1492.97
542.73	1583.08
542.93	1564.65
543.13	1505.26
543.33	1611.75
543.53	1548.26
543.72	1574.89
543.92	1531.88
544.12	1538.02
544.32	1685.48
544.51	1628.14
544.71	1669.09
544.91	1642.47
545.11	1787.88
545.30	2758.61
545.50	6172.58
545.70	14028.59
545.90	21755.57
546.10	28673.61
546.29	34557.42
546.49	35868.12
546.69	33795.58
546.89	29341.25
547.08	24514.19
547.28	21077.69
547.48	18235.11
547.68	15439.64
547.87	12238.66
548.07	9500.53
548.27	7403.41
548.47	5740.46
548.66	4499.39
548.86	3286.99
549.06	2506.71
549.25	2195.42
549.45	1949.67
549.65	1785.83
549.85	1755.11
550.04	1744.87
550.24	1632.23
550.44	1638.38
550.64	1693.67
550.83	1615.85
551.03	1628.14
551.23	1589.22
551.43	1480.68
551.62	1542.12
551.82	1570.79
552.02	1599.46
552.21	1476.59
552.41	1503.21
552.61	1628.14
552.81	1472.49
553.00	1556.46
553.20	1464.30
553.40	1581.03
553.59	1570.79
553.79	1595.37
553.99	1458.15
554.18	1464.30
554.38	1562.60
554.58	1538.02
554.78	1554.41
554.97	1542.12
555.17	1533.93
555.37	1531.88
555.56	1529.83
555.76	1509.35
555.96	1542.12
556.15	1542.12
556.35	1566.70
556.55	1611.75
556.74	1488.87
556.94	1611.75
557.14	1599.46
557.34	1554.41
557.53	1517.54
557.73	1587.18
557.93	1533.93
558.12	1423.34
558.32	1499.11
558.52	1566.70
558.71	1513.45
558.91	1460.20
559.11	1505.26
559.30	1515.50
559.50	1443.82
559.70	1466.35
559.89	1562.60
560.09	1497.07
560.29	1456.11
560.48	1490.92
560.68	1497.07
560.88	1538.02
561.07	1525.74
561.27	1535.98
561.46	1607.66
561.66	1578.98
561.86	1409.00
562.05	1603.56
562.25	1456.11
562.45	1513.45
562.64	1433.58
562.84	1513.45
563.04	1542.12
563.23	1466.35
563.43	1460.20
563.63	1597.42
563.82	1538.02
564.02	1589.22
564.21	1472.49
564.41	1550.31
564.61	1578.98
564.80	1480.68
565.00	1464.30
565.20	1499.11
565.39	1488.87
565.59	1488.87
565.78	1546.22
565.98	1595.37
566.18	1482.73
566.37	1538.02
566.57	1447.91
566.77	1529.83
566.96	1411.05
567.16	1529.83
567.35	1476.59
567.55	1587.18
567.75	1523.69
567.94	1439.72
568.14	1570.79
568.33	1507.30
568.53	1540.07
568.73	1613.80
568.92	1490.92
569.12	1581.03
569.31	1505.26
569.51	1449.96
569.71	1492.97
569.90	1499.11
570.10	1581.03
570.29	1578.98
570.49	1562.60
570.69	1572.84
570.88	1476.59
571.08	1474.54
571.27	1589.22
571.47	1513.45
571.66	1419.24
571.86	1456.11
572.06	1509.35
572.25	1497.07
572.45	1554.41
572.64	1447.91
572.84	1521.64
573.03	1513.45
573.23	1578.98
573.43	1591.27
573.62	1521.64
573.82	1548.26
574.01	1497.07
574.21	1390.57
574.40	1423.34
574.60	1464.30
574.79	1486.83
574.99	1570.79
575.19	1480.68
575.38	1595.37
575.58	1605.61
575.77	1564.65
575.97	1447.91
576.16	1603.56
576.36	1873.89
576.55	2555.86
576.75	3463.12
576.94	4087.75
577.14	4503.48
577.34	4804.53
577.53	4743.10
577.73	4349.89
577.92	3798.98
578.12	3704.78
578.31	3391.44
578.51	3479.50
578.70	3971.01
578.90	4683.70
579.09	4964.28
579.29	5167.03
579.48	5207.98
579.68	4849.59
579.87	4317.12
580.07	3835.85
580.26	3356.62
580.46	3127.25
580.65	2930.64
580.85	2619.35
581.04	2455.51
581.24	2115.55
581.43	2045.92
581.63	1824.74
581.82	1783.78
582.02	1640.42
582.21	1644.52
582.41	1581.03
582.60	1490.92
582.80	1603.56
582.99	1546.22
583.19	1472.49
583.38	1509.35
583.58	1439.72
583.77	1521.64
583.97	1507.30
584.16	1619.94
584.36	1458.15
584.55	1435.63
584.75	1505.26
584.94	1476.59
585.14	1550.31
585.33	1507.30
585.53	1538.02
585.72	1476.59
585.92	1669.09
586.11	1482.73
586.31	1570.79
586.50	1562.60
586.70	1540.07
586.89	1458.15
587.09	1452.01
587.28	1423.34
587.47	1480.68
587.67	1456.11
587.86	1523.69
588.06	1497.07
588.25	1529.83
588.45	1441.77
588.64	1441.77
588.84	1542.12
589.03	1492.97
589.23	1525.74
589.42	1556.46
589.61	1492.97
589.81	1572.84
590.00	1499.11
590.20	1427.43
590.39	1452.01
590.59	1529.83
590.78	1521.64
590.98	1474.54
591.17	1458.15
591.36	1490.92
591.56	1452.01
591.75	1611.75
591.95	1517.54
592.14	1515.50
592.34	1540.07
592.53	1540.07
592.72	1382.38
592.92	1523.69
593.11	1472.49
593.31	1562.60
593.50	1476.59
593.69	1521.64
593.89	1482.73
594.08	1492.97
594.28	1525.74
594.47	1443.82
594.67	1562.60
594.86	1558.50
595.05	1495.02
595.25	1521.64
595.44	1384.43
595.64	1533.93
595.83	1521.64
596.02	1572.84
596.22	1439.72
596.41	1548.26
596.61	1458.15
596.80	1466.35
596.99	1447.91
597.19	1398.76
597.38	1476.59
597.58	1556.46
597.77	1456.11
597.96	1464.30
598.16	1464.30
598.35	1556.46
598.54	1464.30
598.74	1507.30
598.93	1449.96
599.13	1439.72
599.32	1521.64
599.51	1415.15
599.71	1538.02
599.90	1423.34
600.09	1433.58
600.29	1431.53
600.48	1441.77
600.68	1458.15
600.87	1566.70
601.06	1548.26
601.26	1488.87
601.45	1505.26
601.64	1384.43
601.84	1521.64
602.03	1523.69
602.22	1585.13
602.42	1447.91
602.61	1488.87
602.80	1456.11
603.00	1595.37
603.19	1443.82
603.38	1722.34
603.58	1628.14
603.77	1589.22
603.96	1578.98
604.16	1544.17
604.35	1513.45
604.54	1595.37
604.74	1562.60
604.93	1605.61
605.12	1533.93
605.32	1566.70
605.51	1521.64
605.70	1464.30
605.90	1529.83
606.09	1611.75
606.28	1392.62
606.48	1554.41
606.67	1443.82
606.86	1556.46
607.06	1480.68
607.25	1562.60
607.44	1517.54
607.64	1488.87
607.83	1542.12
608.02	1488.87
608.22	1488.87
608.41	1523.69
608.60	1425.39
608.79	1431.53
608.99	1439.72
609.18	1562.60
609.37	1341.42
609.57	1554.41
609.76	1423.34
609.95	1439.72
610.15	1472.49
610.34	1409.00
610.53	1521.64
610.72	1548.26
610.92	1507.30
611.11	1488.87
611.30	1533.93
611.50	1480.68
611.69	1433.58
611.88	1464.30
612.07	1611.75
612.27	1507.30
612.46	1431.53
612.65	1472.49
612.84	1509.35
613.04	1449.96
613.23	1484.78
613.42	1417.19
613.62	1578.98
613.81	1474.54
614.00	1611.75
614.19	1474.54
614.39	1464.30
614.58	1636.33
614.77	1607.66
614.96	1564.65
615.16	1531.88
615.35	1505.26
615.54	1513.45
615.73	1531.88
615.93	1517.54
616.12	1660.90
616.31	1509.35
616.50	1480.68
616.70	1480.68
616.89	1521.64
617.08	1529.83
617.27	1521.64
617.47	1578.98
617.66	1507.30
617.85	1486.83
618.04	1538.02
618.23	1433.58
618.43	1499.11
618.62	1513.45
618.81	1501.16
619.00	1439.72
619.20	1519.59
619.39	1466.35
619.58	1619.94
619.77	1464.30
619.96	1409.00
620.16	1529.83
620.35	1497.07
620.54	1415.15
620.73	1521.64
620.93	1505.26
621.12	1538.02
621.31	1476.59
621.50	1542.12
621.69	1484.78
621.89	1423.34
622.08	1398.76
622.27	1425.39
622.46	1529.83
622.65	1482.73
622.85	1513.45
623.04	1603.56
623.23	1484.78
623.42	1447.91
623.61	1499.11
623.81	1513.45
624.00	1505.26
624.19	1415.15
624.38	1605.61
624.57	1523.69
624.76	1538.02
624.96	1513.45
625.15	1425.39
625.34	1439.72
625.53	1619.94
625.72	1458.15
625.91	1529.83
626.11	1460.20
626.30	1456.11
626.49	1540.07
626.68	1474.54
626.87	1472.49
627.06	1447.91
627.26	1443.82
627.45	1472.49
627.64	1540.07
627.83	1466.35
628.02	1466.35
628.21	1556.46
628.41	1505.26
628.60	1499.11
628.79	1390.57
628.98	1497.07
629.17	1476.59
629.36	1452.01
629.55	1474.54
629.75	1497.07
629.94	1554.41
630.13	1443.82
630.32	1449.96
630.51	1554.41
630.70	1538.02
630.89	1513.45
631.09	1447.91
631.28	1513.45
631.47	1533.93
631.66	1431.53
631.85	1529.83
632.04	1447.91
632.23	1390.57
632.42	1488.87
632.62	1540.07
632.81	1431.53
633.00	1574.89
633.19	1398.76
633.38	1456.11
633.57	1513.45
633.76	1484.78
633.95	1398.76
634.14	1415.15
634.34	1482.73
634.53	1480.68
634.72	1546.22
634.91	1636.33
635.10	1472.49
635.29	1466.35
635.48	1523.69
635.67	1480.68
635.86	1474.54
636.05	1587.18
636.24	1452.01
636.44	1433.58
636.63	1523.69
636.82	1490.92
637.01	1490.92
637.20	1515.50
637.39	1488.87
637.58	1554.41
637.77	1460.20
637.96	1480.68
638.15	1558.50
638.34	1464.30
638.53	1382.38
638.73	1505.26
638.92	1464.30
639.11	1564.65
639.30	1587.18
639.49	1456.11
639.68	1359.85
639.87	1529.83
640.06	1394.67
640.25	1480.68
640.44	1423.34
640.63	1484.78
640.82	1441.77
641.01	1476.59
641.20	1581.03
641.39	1484.78
641.58	1531.88
641.77	1611.75
641.96	1621.99
642.16	1482.73
642.35	1538.02
642.54	1619.94
642.73	1449.96
642.92	1583.08
643.11	1619.94
643.30	1474.54
643.49	1466.35
643.68	1562.60
643.87	1411.05
644.06	1456.11
644.25	1472.49
644.44	1531.88
644.63	1468.39
644.82	1439.72
645.01	1423.34
645.20	1447.91
645.39	1546.22
645.58	1499.11
645.77	1464.30
645.96	1570.79
646.15	1423.34
646.34	1538.02
646.53	1439.72
646.72	1472.49
646.91	1488.87
647.10	1384.43
647.29	1501.16
647.48	1583.08
647.67	1492.97
647.86	1447.91
648.05	1509.35
648.24	1505.26
648.43	1546.22
648.62	1443.82
648.81	1462.25
649.00	1378.28
649.19	1570.79
649.38	1433.58
649.57	1439.72
649.76	1511.40
649.95	1507.30
650.14	1507.30
650.33	1441.77
650.52	1529.83
650.71	1376.24
650.90	1554.41
651.09	1548.26
651.28	1419.24
651.47	1415.15
651.66	1468.39
651.85	1406.95
652.04	1490.92
652.23	1423.34
652.42	1431.53
652.61	1452.01
652.80	1513.45
652.99	1449.96
653.17	1521.64
653.36	1492.97
653.55	1460.20
653.74	1423.34
653.93	1484.78
654.12	1480.68
654.31	1474.54
654.50	1449.96
654.69	1486.83
654.88	1554.41
655.07	1490.92
655.26	1458.15
655.45	1447.91
655.64	1578.98
655.83	1587.18
656.02	1587.18
656.21	1652.71
656.39	1632.23
656.58	1619.94
656.77	1509.35
656.96	1630.18
657.15	1603.56
657.34	1611.75
657.53	1564.65
657.72	1564.65
657.91	1480.68
658.10	1554.41
658.29	1497.07
658.48	1548.26
658.67	1515.50
658.85	1497.07
659.04	1411.05
659.23	1538.02
659.42	1449.96
659.61	1529.83
659.80	1521.64
659.99	1529.83
660.18	1505.26
660.37	1452.01
660.56	1523.69
660.74	1521.64
660.93	1505.26
661.12	1480.68
661.31	1484.78
661.50	1476.59
661.69	1456.11
661.88	1472.49
662.07	1529.83
662.26	1570.79
662.44	1480.68
662.63	1490.92
662.82	1435.63
663.01	1562.60
663.20	1507.30
663.39	1423.34
663.58	1464.30
663.77	1499.11
663.95	1513.45
664.14	1497.07
664.33	1460.20
664.52	1447.91
664.71	1550.31
664.90	1472.49
665.09	1480.68
665.27	1611.75
665.46	1376.24
665.65	1546.22
665.84	1456.11
666.03	1492.97
666.22	1468.39
666.41	1578.98
666.59	1431.53
666.78	1458.15
666.97	1458.15
667.16	1540.07
667.35	1591.27
667.54	1515.50
667.72	1554.41
667.91	1529.83
668.10	1578.98
668.29	1501.16
668.48	1542.12
668.67	1566.70
668.85	1607.66
669.04	1605.61
669.23	1597.42
669.42	1529.83
669.61	1366.00
669.80	1529.83
669.98	1509.35
670.17	1546.22
670.36	1474.54
670.55	1390.57
670.74	1472.49
670.92	1505.26
671.11	1499.11
671.30	1435.63
671.49	1578.98
671.68	1587.18
671.86	1433.58
672.05	1513.45
672.24	1509.35
672.43	1435.63
672.62	1523.69
672.80	1472.49
672.99	1482.73
673.18	1505.26
673.37	1423.34
673.56	1540.07
673.74	1452.01
673.93	1513.45
674.12	1529.83
674.31	1402.86
674.50	1382.38
674.68	1482.73
674.87	1538.02
675.06	1628.14
675.25	1529.83
675.43	1628.14
675.62	1607.66
675.81	1644.52
676.00	1728.49
676.19	1615.85
676.37	1605.61
676.56	1652.71
676.75	1540.07
676.94	1484.78
677.12	1546.22
677.31	1554.41
677.50	1431.53
677.69	1456.11
677.87	1411.05
678.06	1513.45
678.25	1447.91
678.44	1468.39
678.62	1417.19
678.81	1507.30
679.00	1515.50
679.19	1447.91
679.37	1441.77
679.56	1439.72
679.75	1552.36
679.94	1527.78
680.12	1464.30
680.31	1505.26
680.50	1468.39
680.68	1480.68
680.87	1398.76
681.06	1570.79
681.25	1613.80
681.43	1517.54
681.62	1538.02
681.81	1447.91
682.00	1538.02
682.18	1517.54
682.37	1415.15
682.56	1458.15
682.74	1484.78
682.93	1581.03
683.12	1464.30
683.31	1484.78
683.49	1466.35
683.68	1505.26
683.87	1409.00
684.05	1488.87
684.24	1497.07
684.43	1411.05
684.61	1431.53
684.80	1464.30
684.99	1464.30
685.18	1419.24
685.36	1482.73
685.55	1480.68
685.74	1472.49
685.92	1431.53
686.11	1505.26
686.30	1492.97
686.48	1562.60
686.67	1525.74
686.86	1644.52
687.04	1456.11
687.23	1595.37
687.42	1578.98
687.60	1648.61
687.79	1679.33
687.98	1574.89
688.16	1578.98
688.35	1603.56
688.54	1669.09
688.72	2070.50
688.91	1554.41
689.10	1597.42
689.28	1439.72
689.47	1558.50
689.66	1558.50
689.84	1576.94
690.03	1497.07
690.22	1542.12
690.40	1587.18
690.59	1656.81
690.78	1458.15
690.96	1488.87
691.15	1497.07
691.34	1554.41
691.52	1578.98
691.71	1533.93
691.89	1515.50
692.08	1533.93
692.27	1505.26
692.45	1556.46
692.64	1513.45
692.83	1488.87
693.01	1488.87
693.20	1556.46
693.38	1497.07
693.57	1454.06
693.76	1564.65
693.94	1613.80
694.13	1726.44
694.32	1507.30
694.50	1619.94
694.69	1540.07
694.87	1515.50
695.06	1499.11
695.25	1603.56
695.43	1603.56
695.62	1603.56
695.80	2230.24
695.99	3332.05
696.18	5603.24
696.36	7765.90
696.55	9680.75
696.73	11679.57
696.92	12285.76
697.11	12326.72
697.29	11384.66
697.48	10280.80
697.66	9158.52
697.85	7946.12
698.04	7397.26
698.22	6430.62
698.41	5887.91
698.59	5322.67
698.78	4573.11
698.96	3995.59
699.15	3395.53
699.34	2906.07
699.52	2469.85
699.71	2205.66
699.89	1980.39
700.08	1742.82
700.26	1718.25
700.45	1744.87
700.64	1538.02
700.82	1611.75
701.01	1554.41
701.19	1613.80
701.38	1558.50
701.56	1449.96
701.75	1548.26
701.93	1505.26
702.12	1474.54
702.31	1484.78
702.49	1507.30
702.68	1605.61
702.86	1570.79
703.05	1570.79
703.23	1611.75
703.42	1744.87
703.60	1621.99
703.79	1529.83
703.97	1546.22
704.16	1644.52
704.34	1560.55
704.53	1591.27
704.72	1531.88
704.90	1505.26
705.09	1552.36
705.27	1521.64
705.46	1587.18
705.64	1523.69
705.83	1644.52
706.01	1906.66
706.20	2717.65
706.38	4202.43
706.57	5801.90
706.75	7059.35
706.94	7944.07
707.12	8562.56
707.31	8329.09
707.49	7821.19
707.68	7067.54
707.86	6475.68
708.05	5789.61
708.23	5461.93
708.42	4806.58
708.60	4372.41
708.79	4106.18
708.97	3602.38
709.16	3237.84
709.34	2746.33
709.53	2375.64
709.71	2144.22
709.90	2013.15
710.08	1816.55
710.27	1648.61
710.45	1564.65
710.64	1570.79
710.82	1591.27
711.00	1951.71
711.19	1517.54
711.37	1468.39
711.56	1423.34
711.74	1513.45
711.93	1529.83
712.11	1521.64
712.30	1505.26
712.48	1464.30
712.67	1542.12
712.85	1501.16
713.04	1540.07
713.22	1546.22
713.40	1505.26
713.59	1540.07
713.77	1546.22
713.96	1525.74
714.14	1681.38
714.33	1873.89
714.51	2021.35
714.70	2283.49
714.88	2443.23
715.06	2426.84
715.25	2504.67
715.43	2443.23
715.62	2226.14
715.80	2226.14
715.99	2140.13
716.17	1994.72
716.35	1984.48
716.54	1945.57
716.72	1902.56
716.91	1759.21
717.09	1794.02
717.28	1654.76
717.46	1783.78
717.64	1589.22
717.83	1621.99
718.01	1406.95
718.20	1482.73
718.38	1505.26
718.56	1441.77
718.75	1548.26
718.93	1589.22
719.12	1501.16
719.30	1490.92
719.48	1374.19
719.67	1538.02
719.85	1490.92
720.04	1431.53
720.22	1474.54
720.40	1366.00
720.59	1595.37
720.77	1509.35
720.96	1564.65
721.14	1466.35
721.32	1460.20
721.51	1466.35
721.69	1435.63
721.87	1474.54
722.06	1513.45
722.24	1562.60
722.43	1435.63
722.61	1505.26
722.79	1574.89
722.98	1513.45
723.16	1546.22
723.34	1505.26
723.53	1507.30
723.71	1521.64
723.90	1546.22
724.08	1452.01
724.26	1507.30
724.45	1456.11
724.63	1490.92
724.81	1464.30
725.00	1480.68
725.18	1488.87
725.36	1474.54
725.55	1497.07
725.73	1464.30
725.91	1556.46
726.10	1529.83
726.28	1546.22
726.46	1587.18
726.65	1759.21
726.83	2176.99
727.01	2709.46
727.20	3104.72
727.38	3684.30
727.56	3930.05
727.75	4134.85
727.93	3989.44
728.11	3686.34
728.30	3561.42
728.48	3319.76
728.66	3006.42
728.85	2734.04
729.03	2750.42
729.21	2562.01
729.40	2523.10
729.58	2217.95
729.76	2054.11
729.94	1884.13
730.13	1812.45
730.31	1644.52
730.49	1511.40
730.68	1538.02
730.86	1578.98
731.04	1564.65
731.23	1480.68
731.41	1554.41
731.59	1433.58
731.77	1546.22
731.96	1529.83
732.14	1603.56
732.32	1533.93
732.51	1482.73
732.69	1517.54
732.87	1497.07
733.05	1564.65
733.24	1513.45
733.42	1578.98
733.60	1464.30
733.79	1445.87
733.97	1501.16
734.15	1544.17
734.33	1578.98
734.52	1480.68
734.70	1628.14
734.88	1603.56
735.06	1480.68
735.25	1546.22
735.43	1613.80
735.61	1499.11
735.79	1621.99
735.98	1570.79
736.16	1890.28
736.34	1523.69
736.52	1554.41
736.71	1595.37
736.89	1554.41
737.07	1726.44
737.25	1718.25
737.44	1769.44
737.62	2189.28
737.80	3106.77
737.98	4962.23
738.17	7206.80
738.35	9545.58
738.53	11859.79
738.71	13068.09
738.89	13233.97
739.08	12773.18
739.26	11798.35
739.44	10647.39
739.62	9647.98
739.81	8603.52
739.99	7509.90
740.17	6731.67
740.35	6018.98
740.53	5234.61
740.72	4491.20
740.90	3782.60
741.08	3082.19
741.26	2643.93
741.44	2088.93
741.63	2004.96
741.81	1949.67
741.99	1726.44
742.17	1685.48
742.35	1648.61
742.54	1497.07
742.72	1646.57
742.90	1613.80
743.08	1513.45
743.26	1540.07
743.45	1644.52
743.63	1595.37
743.81	1550.31
743.99	1556.46
744.17	1521.64
744.35	1564.65
744.54	1595.37
744.72	1630.18
744.90	1556.46
745.08	1464.30
745.26	1595.37
745.44	1556.46
745.63	1546.22
745.81	1570.79
745.99	1654.76
746.17	1456.11
746.35	1501.16
746.53	1566.70
746.72	1488.87
746.90	1558.50
747.08	1564.65
747.26	1562.60
747.44	1615.85
747.62	1662.95
747.81	1589.22
747.99	1521.64
748.17	1636.33
748.35	1505.26
748.53	1554.41
748.71	1677.29
748.89	1628.14
749.07	1677.29
749.26	1619.94
749.44	1718.25
749.62	1974.24
749.80	3096.53
749.98	4921.27
750.16	7114.64
750.34	9508.72
750.52	11642.70
750.71	13442.87
750.89	14763.81
751.07	16324.36
751.25	17864.43
751.43	18808.54
751.61	20215.50
751.79	20020.94
751.97	19324.63
752.15	17757.94
752.34	16006.92
752.52	13915.95
752.70	12107.59
752.88	10532.70
753.06	9049.97
753.24	7597.96
753.42	6182.82
753.60	5121.97
753.78	4405.18
753.96	3692.49
754.15	3270.61
754.33	2711.51
754.51	2400.22
754.69	2086.88
754.87	1966.05
755.05	1777.64
755.23	1730.53
755.41	1679.33
755.59	1636.33
755.77	1529.83
755.95	1570.79
756.13	1619.94
756.31	1587.18
756.50	1548.26
756.68	1482.73
756.86	1505.26
757.04	1521.64
757.22	1587.18
757.40	1562.60
757.58	1413.10
757.76	1550.31
757.94	1595.37
758.12	1685.48
758.30	1562.60
758.48	1523.69
758.66	1468.39
758.84	1652.71
759.02	1505.26
759.20	1562.60
759.38	1603.56
759.56	1548.26
759.74	1710.05
759.92	1587.18
760.10	1554.41
760.28	1648.61
760.47	1529.83
760.65	1583.08
760.83	1603.56
761.01	1564.65
761.19	1603.56
761.37	1652.71
761.55	1587.18
761.73	1673.19
761.91	1654.76
762.09	1693.67
762.27	1777.64
762.45	1837.03
762.63	2432.99
762.81	4933.56
762.99	11372.37
763.17	21663.41
763.35	33408.51
763.53	43961.70
763.71	52382.94
763.89	58121.35
764.07	57273.49
764.25	55086.26
764.43	49786.12
764.61	43820.39
764.79	37361.09
764.97	30760.49
765.15	24639.11
765.33	19265.24
765.51	15134.49
765.69	12220.23
765.87	10667.87
766.05	8836.99
766.23	7460.75
766.41	5904.29
766.58	4581.31
766.76	3536.84
766.94	2971.60
767.12	2430.94
767.30	2291.68
767.48	1968.10
767.66	1916.90
767.84	1877.99
768.02	1865.70
768.20	1775.59
768.38	1779.68
768.56	1681.38
768.74	1605.61
768.92	1564.65
769.10	1665.00
769.28	1654.76
769.46	1652.71
769.64	1628.14
769.82	1660.90
770.00	1669.09
770.18	1589.22
770.36	1669.09
770.53	1654.76
770.71	1654.76
770.89	1652.71
771.07	1675.24
771.25	1603.56
771.43	1705.96
771.61	2111.46
771.79	3475.40
771.97	6256.54
772.15	10108.77
772.33	13913.90
772.51	17346.30
772.69	20068.05
772.86	21042.88
773.04	20954.82
773.22	19185.37
773.40	17233.66
773.58	14458.66
773.76	11999.05
773.94	9434.99
774.12	7616.40
774.30	6043.56
774.48	4995.00
774.65	4497.34
774.83	4044.74
775.01	3790.79
775.19	3356.62
775.37	2832.34
775.55	2514.91
775.73	2162.66
775.91	1968.10
776.09	1890.28
776.26	1646.57
776.44	1705.96
776.62	1628.14
776.80	1538.02
776.98	1583.08
777.16	1556.46
777.34	1644.52
777.52	1640.42
777.69	1669.09
777.87	1628.14
778.05	1603.56
778.23	1570.79
778.41	1660.90
778.59	1624.04
778.77	1531.88
778.94	1449.96
779.12	1490.92
779.30	1548.26
779.48	1603.56
779.66	1501.16
779.84	1570.79
780.02	1597.42
780.19	1521.64
780.37	1484.78
780.55	1529.83
780.73	1484.78
780.91	1595.37
781.09	1583.08
781.26	1574.89
781.44	1472.49
781.62	1513.45
781.80	1513.45
781.98	1447.91
782.16	1447.91
782.33	1546.22
782.51	1619.94
782.69	1406.95
782.87	1515.50
783.05	1499.11
783.22	1662.95
783.40	1409.00
783.58	1490.92
783.76	1497.07
783.94	1521.64
784.12	1466.35
784.29	1513.45
784.47	1488.87
784.65	1456.11
784.83	1554.41
785.01	1570.79
785.18	1550.31
785.36	1456.11
785.54	1581.03
785.72	1587.18
785.89	1525.74
786.07	1517.54
786.25	1554.41
786.43	1482.73
786.61	1474.54
786.78	1447.91
786.96	1548.26
787.14	1572.84
787.32	1538.02
787.49	1611.75
787.67	1490.92
787.85	1472.49
788.03	1456.11
788.21	1605.61
788.38	1529.83
788.56	1468.39
788.74	1419.24
788.92	1538.02
789.09	1554.41
789.27	1521.64
789.45	1546.22
789.63	1570.79
789.80	1482.73
789.98	1595.37
790.16	1603.56
790.34	1558.50
790.51	1562.60
790.69	1548.26
790.87	1456.11
791.05	1509.35
791.22	1554.41
791.40	1529.83
791.58	1466.35
791.76	1546.22
791.93	1630.18
792.11	1521.64
792.29	1464.30
792.46	1513.45
792.64	1529.83
792.82	1587.18
793.00	1595.37
793.17	1578.98
793.35	1587.18
793.53	1669.09
793.70	1636.33
793.88	1595.37
794.06	2009.06
794.24	2992.08
794.41	4995.00
794.59	7526.29
794.77	9922.41
794.94	12375.88
795.12	13670.19
795.30	13981.48
795.47	12814.14
795.65	11362.13
795.83	9705.32
796.01	7757.71
796.18	6152.10
796.36	4945.84
796.54	4374.46
796.71	4061.12
796.89	3692.49
797.07	3399.63
797.24	3168.21
797.42	3110.86
797.60	2987.99
797.77	2697.17
797.95	2324.44
798.13	2138.08
798.30	2013.15
798.48	1728.49
798.66	1816.55
798.83	1828.84
799.01	1652.71
799.19	1685.48
799.36	1636.33
799.54	1607.66
799.72	1783.78
799.89	1947.62
800.07	2807.77
800.25	3921.86
800.42	5388.21
800.60	7219.09
800.78	9062.26
800.95	11499.34
801.13	13453.11
801.30	15111.96
801.48	16756.48
801.66	17979.12
801.83	18085.61
802.01	16451.33
802.19	14704.42
802.36	12687.17
802.54	10393.44
802.72	8456.06
802.89	7047.06
803.07	5742.50
803.24	5298.10
803.42	4802.49
803.60	4323.26
803.77	3964.87
803.95	3651.53
804.12	3348.43
804.30	3119.06
804.48	2815.96
804.65	2545.63
804.83	2269.15
805.01	2127.84
805.18	1957.86
805.36	1841.12
805.53	1677.29
805.71	1660.90
805.88	1546.22
806.06	1646.57
806.24	1556.46
806.41	1644.52
806.59	1501.16
806.76	1546.22
806.94	1554.41
807.12	1578.98
807.29	1613.80
807.47	1540.07
807.64	1587.18
807.82	1660.90
807.99	1556.46
808.17	1595.37
808.35	1603.56
808.52	1542.12
808.70	1607.66
808.87	1605.61
809.05	1615.85
809.22	1671.14
809.40	1642.47
809.58	1892.32
809.75	2492.38
809.93	4372.41
810.10	6872.98
810.28	9398.13
810.45	12146.50
810.63	13977.39
810.80	15370.01
810.98	17594.10
811.15	22517.42
811.33	28354.13
811.51	33625.60
811.68	37930.43
811.86	40545.69
812.03	39531.94
812.21	35472.87
812.38	30068.28
812.56	24331.92
812.73	19103.45
812.91	15824.65
813.08	13309.75
813.26	11659.09
813.43	10485.60
813.61	9222.00
813.78	8437.63
813.96	7444.37
814.13	6862.74
814.31	6477.73
814.48	5814.18
814.66	5152.69
814.83	4382.65
815.01	3569.61
815.18	3061.71
815.36	2539.48
815.53	2176.99
815.71	2037.73
815.88	1867.75
816.06	1783.78
816.23	1720.29
816.41	1538.02
816.58	1613.80
816.76	1853.41
816.93	1497.07
817.11	1587.18
817.28	1488.87
817.46	1587.18
817.63	1538.02
817.81	1591.27
817.98	1554.41
818.16	1521.64
818.33	1564.65
818.51	1578.98
818.68	1449.96
818.86	1640.42
819.03	1550.31
819.21	1562.60
819.38	1556.46
819.55	1490.92
819.73	1525.74
819.90	1423.34
820.08	1529.83
820.25	1538.02
820.43	1482.73
820.60	1529.83
820.78	1505.26
820.95	1490.92
821.12	1550.31
821.30	1521.64
821.47	1538.02
821.65	1517.54
821.82	1497.07
822.00	1443.82
822.17	1517.54
822.35	1531.88
822.52	1507.30
822.69	1531.88
822.87	1449.96
823.04	1476.59
823.22	1460.20
823.39	1507.30
823.56	1593.32
823.74	1456.11
823.91	1490.92
824.09	1529.83
824.26	1464.30
824.44	1497.07
824.61	1578.98
824.78	1521.64
824.96	1484.78
825.13	1562.60
825.31	1497.07
825.48	1562.60
825.65	1820.64
825.83	2203.61
826.00	3282.89
826.18	4827.06
826.35	6004.64
826.52	7165.84
826.70	7763.85
826.87	7853.96
827.04	7227.28
827.22	6293.41
827.39	5425.07
827.57	4669.37
827.74	4046.79
827.91	3536.84
828.09	3340.24
828.26	3172.30
828.43	3121.10
828.61	2787.29
828.78	2668.50
828.96	2672.60
829.13	2441.18
829.30	2471.90
829.48	2422.75
829.65	2176.99
829.82	2050.02
830.00	1818.60
830.17	1761.25
830.34	1730.53
830.52	1644.52
830.69	1619.94
830.86	1570.79
831.04	1449.96
831.21	1566.70
831.38	1538.02
831.56	1513.45
831.73	1525.74
831.90	1521.64
832.08	1476.59
832.25	1505.26
832.42	1531.88
832.60	1574.89
832.77	1435.63
832.94	1505.26
833.12	1423.34
833.29	1513.45
833.46	1456.11
833.64	1568.74
833.81	1468.39
833.98	1581.03
834.16	1449.96
834.33	1611.75
834.50	1581.03
834.67	1497.07
834.85	1542.12
835.02	1480.68
835.19	1531.88
835.37	1521.64
835.54	1417.19
835.71	1490.92
835.89	1409.00
836.06	1464.30
836.23	1515.50
836.40	1507.30
836.58	1578.98
836.75	1619.94
836.92	1472.49
837.10	1480.68
837.27	1394.67
837.44	1449.96
837.61	1480.68
837.79	1482.73
837.96	1554.41
838.13	1538.02
838.30	1505.26
838.48	1488.87
838.65	1497.07
838.82	1538.02
838.99	1523.69
839.17	1581.03
839.34	1517.54
839.51	1488.87
839.69	1521.64
839.86	1603.56
840.03	1931.23
840.20	2596.82
840.37	3815.37
840.55	5463.98
840.72	6952.85
840.89	8306.56
841.06	8951.67
841.24	8636.28
841.41	7976.84
841.58	7346.06
841.75	7149.46
841.93	7749.51
842.10	9348.98
842.27	11532.11
842.44	13033.27
842.62	14219.05
842.79	14876.44
842.96	14010.15
843.13	12588.86
843.30	10950.49
843.48	9625.45
843.65	8316.80
843.82	7690.12
843.99	6866.84
844.16	6309.79
844.34	5750.70
844.51	5332.91
844.68	4822.97
844.85	4358.08
845.02	3925.96
845.20	3760.07
845.37	3463.12
845.54	3325.90
845.71	3078.10
845.88	2922.45
846.06	2709.46
846.23	2349.02
846.40	2209.76
846.57	1845.22
846.74	1775.59
846.91	1738.73
847.09	1611.75
847.26	1540.07
847.43	1669.09
847.60	1546.22
847.77	1538.02
847.94	1611.75
848.12	1472.49
848.29	1521.64
848.46	1492.97
848.63	1505.26
848.80	1447.91
848.97	1540.07
849.15	1599.46
849.32	1497.07
849.49	1378.28
849.66	1554.41
849.83	1480.68
850.00	1505.26
850.17	1474.54
850.35	1523.69
850.52	1509.35
850.69	1474.54
850.86	1488.87
851.03	1476.59
851.20	1605.61
851.37	1673.19
851.55	1955.81
851.72	2594.78
851.89	3424.20
852.06	3921.86
852.23	4392.89
852.40	4691.90
852.57	4675.51
852.74	4310.97
852.92	3856.33
853.09	3684.30
853.26	3416.01
853.43	3160.02
853.60	2979.79
853.77	2729.94
853.94	2676.70
854.11	2639.83
854.28	2865.11
854.45	2459.61
854.63	2394.08
854.80	2144.22
854.97	2220.00
855.14	2047.97
855.31	2039.78
855.48	1939.43
855.65	1857.51
855.82	1910.75
855.99	1767.40
856.16	1677.29
856.33	1603.56
856.50	1615.85
856.68	1531.88
856.85	1574.89
857.02	1497.07
857.19	1433.58
857.36	1460.20
857.53	1505.26
857.70	1427.43
857.87	1501.16
858.04	1374.19
858.21	1488.87
858.38	1505.26
858.55	1509.35
858.72	1507.30
858.89	1456.11
859.06	1578.98
859.23	1447.91
859.40	1570.79
859.58	1400.81
859.75	1468.39
859.92	1513.45
860.09	1540.07
860.26	1417.19
860.43	1466.35
860.60	1472.49
860.77	1482.73
860.94	1456.11
861.11	1521.64
861.28	1505.26
861.45	1562.60
861.62	1447.91
861.79	1529.83
861.96	1433.58
862.13	1499.11
862.30	1464.30
862.47	1366.00
862.64	1624.04
862.81	1374.19
862.98	1411.05
863.15	1390.57
863.32	1521.64
863.49	1482.73
863.66	1513.45
863.83	1476.59
864.00	1390.57
864.17	1488.87
864.34	1431.53
864.51	1464.30
864.68	1376.24
864.85	1435.63
865.02	1443.82
865.19	1474.54
865.36	1472.49
865.53	1480.68
865.70	1464.30
865.87	1499.11
866.04	1558.50
866.21	1452.01
866.38	1624.04
866.55	1652.71
866.72	1810.40
866.89	1890.28
867.06	1865.70
867.23	1898.47
867.40	1865.70
867.57	1871.84
867.73	1785.83
867.90	1736.68
868.07	1796.07
868.24	1779.68
868.41	1767.40
868.58	1693.67
868.75	1673.19
868.92	1701.86
869.09	1644.52
869.26	1583.08
869.43	1595.37
869.60	1572.84
869.77	1540.07
869.94	1599.46
870.11	1595.37
870.28	1546.22
870.45	1507.30
870.61	1521.64
870.78	1480.68
870.95	1531.88
871.12	1492.97
871.29	1603.56
871.46	1548.26
871.63	1456.11
871.80	1423.34
871.97	1509.35
872.14	1538.02
872.31	1466.35
872.47	1482.73
872.64	1376.24
872.81	1443.82
872.98	1417.19
873.15	1417.19
873.32	1505.26
873.49	1505.26
873.66	1538.02
873.83	1466.35
874.00	1566.70
874.16	1458.15
874.33	1388.52
874.50	1388.52
874.67	1400.81
874.84	1447.91
875.01	1464.30
875.18	1447.91
875.35	1474.54
875.51	1472.49
875.68	1513.45
875.85	1525.74
876.02	1480.68
876.19	1499.11
876.36	1449.96
876.53	1433.58
876.69	1558.50
876.86	1525.74
877.03	1499.11
877.20	1509.35
877.37	1505.26
877.54	1423.34
877.71	1484.78
877.87	1497.07
878.04	1488.87
878.21	1376.24
878.38	1464.30
878.55	1474.54
878.72	1488.87
878.88	1505.26
879.05	1525.74
879.22	1384.43
879.39	1456.11
879.56	1488.87
879.73	1531.88
879.89	1449.96
880.06	1562.60
880.23	1499.11
880.40	1423.34
880.57	1515.50
880.74	1488.87
880.90	1546.22
881.07	1449.96
881.24	1538.02
881.41	1460.20
881.58	1531.88
881.74	1417.19
881.91	1443.82
882.08	1521.64
882.25	1523.69
882.42	1400.81
882.58	1652.71
882.75	1470.44
882.92	1497.07
883.09	1482.73
883.26	1597.42
883.42	1538.02
883.59	1480.68
883.76	1431.53
883.93	1490.92
884.09	1400.81
884.26	1558.50
884.43	1630.18
884.60	1523.69
884.77	1466.35
884.93	1533.93
885.10	1542.12
885.27	1497.07
885.44	1523.69
885.60	1628.14
885.77	1525.74
885.94	1529.83
886.11	1538.02
886.27	1490.92
886.44	1562.60
886.61	1562.60
886.78	1447.91
886.94	1546.22
887.11	1447.91
887.28	1505.26
887.45	1447.91
887.61	1447.91
887.78	1400.81
887.95	1415.15
888.12	1497.07
888.28	1480.68
888.45	1497.07
888.62	1447.91
888.78	1513.45
888.95	1472.49
889.12	1464.30
889.29	1472.49
889.45	1417.19
889.62	1574.89
889.79	1497.07
889.95	1425.39
890.12	1513.45
890.29	1521.64
890.46	1490.92
890.62	1564.65
